ExperimentName,Subject,Session,Age,Clock.Information,Display.RefreshRate,Group,RandomSeed,SessionDate,SessionTime,SessionTimeUtc,Sex,Block,Procedure[Block],Running[Block],SpeakerList,SpeakerList.Cycle,SpeakerList.Sample,SpeakerNumber,Trial,Decision.ACC[Trial],Decision.CRESP[Trial],Decision.DurationError[Trial],Decision.OnsetDelay[Trial],Decision.OnsetTime[Trial],Decision.RESP[Trial],Decision.RT[Trial],Decision.RTTime[Trial],Procedure[Trial],RandomizeSound,Running[Trial],SecondSenarioList,SecondSenarioList.Cycle,SecondSenarioList.Sample,SenarioList,SenarioList.Cycle,SenarioList.Sample,SenarioNumber,SoundFile,SoundFile2,SoundStim
PolitenessJapanese_Perception_ENG,1,1,20,"<?xml version=""1.0""?>\n<Clock xmlns:dt=""urn:schemas-microsoft-com:datatypes""><Description dt:dt=""string"">E-Prime Primary Realtime Clock</Description><StartTime><Timestamp dt:dt=""int"">0</Timestamp><DateUtc dt:dt=""string"">2017-10-05T20:57:56Z</DateUtc></StartTime><FrequencyChanges><FrequencyChange><Frequency dt:dt=""r8"">2597685</Frequency><Timestamp dt:dt=""r8"">1558297906726</Timestamp><Current dt:dt=""r8"">0</Current><DateUtc dt:dt=""string"">2017-10-05T20:57:56Z</DateUtc></FrequencyChange></FrequencyChanges></Clock>\n",60.06,Nonnative Speaker,-774700513,10/5/2017,13:57:56,8:57:56 PM,female,3,Blockproc,SpeakerList,2,1,1,2,1,0,,-999999,27,105765,1,459,106224,SenarioProc,2,SenarioList,,,,7,1,1,7,2_7_pol.wav,2_7_cas.wav,2_7_pol.wav
PolitenessJapanese_Perception_ENG,1,1,20,"<?xml version=""1.0""?>\n<Clock xmlns:dt=""urn:schemas-microsoft-com:datatypes""><Description dt:dt=""string"">E-Prime Primary Realtime Clock</Description><StartTime><Timestamp dt:dt=""int"">0</Timestamp><DateUtc dt:dt=""string"">2017-10-05T20:57:56Z</DateUtc></StartTime><FrequencyChanges><FrequencyChange><Frequency dt:dt=""r8"">2597685</Frequency><Timestamp dt:dt=""r8"">1558297906726</Timestamp><Current dt:dt=""r8"">0</Current><DateUtc dt:dt=""string"">2017-10-05T20:57:56Z</DateUtc></FrequencyChange></FrequencyChanges></Clock>\n",60.06,Nonnative Speaker,-774700513,10/5/2017,13:57:56,8:57:56 PM,female,3,Blockproc,SpeakerList,2,1,1,2,2,0,,-999999,39,111343,1,713,112056,SenarioProc,2,SenarioList,,,,10,1,2,10,2_10_pol.wav,2_10_cas.wav,2_10_pol.wav
PolitenessJapanese_Perception_ENG,1,1,20,"<?xml version=""1.0""?>\n<Clock xmlns:dt=""urn:schemas-microsoft-com:datatypes""><Description dt:dt=""string"">E-Prime Primary Realtime Clock</Description><StartTime><Timestamp dt:dt=""int"">0</Timestamp><DateUtc dt:dt=""string"">2017-10-05T20:57:56Z</DateUtc></StartTime><FrequencyChanges><FrequencyChange><Frequency dt:dt=""r8"">2597685</Frequency><Timestamp dt:dt=""r8"">1558297906726</Timestamp><Current dt:dt=""r8"">0</Current><DateUtc dt:dt=""string"">2017-10-05T20:57:56Z</DateUtc></FrequencyChange></FrequencyChanges></Clock>\n",60.06,Nonnative Speaker,-774700513,10/5/2017,13:57:56,8:57:56 PM,female,3,Blockproc,SpeakerList,2,1,1,2,3,0,,-999999,21,118985,1,687,119672,SenarioProc,1,SenarioList,,,,4,1,3,4,2_4_cas.wav,2_4_pol.wav,2_4_cas.wav
PolitenessJapanese_Perception_ENG,1,1,20,"<?xml version=""1.0""?>\n<Clock xmlns:dt=""urn:schemas-microsoft-com:datatypes""><Description dt:dt=""string"">E-Prime Primary Realtime Clock</Description><StartTime><Timestamp dt:dt=""int"">0</Timestamp><DateUtc dt:dt=""string"">2017-10-05T20:57:56Z</DateUtc></StartTime><FrequencyChanges><FrequencyChange><Frequency dt:dt=""r8"">2597685</Frequency><Timestamp dt:dt=""r8"">1558297906726</Timestamp><Current dt:dt=""r8"">0</Current><DateUtc dt:dt=""string"">2017-10-05T20:57:56Z</DateUtc></FrequencyChange></FrequencyChanges></Clock>\n",60.06,Nonnative Speaker,-774700513,10/5/2017,13:57:56,8:57:56 PM,female,3,Blockproc,SpeakerList,2,1,1,2,4,0,,-999999,38,125046,2,330,125376,SenarioProc,1,SenarioList,,,,2,1,4,2,2_2_cas.wav,2_2_pol.wav,2_2_cas.wav
PolitenessJapanese_Perception_ENG,1,1,20,"<?xml version=""1.0""?>\n<Clock xmlns:dt=""urn:schemas-microsoft-com:datatypes""><Description dt:dt=""string"">E-Prime Primary Realtime Clock</Description><StartTime><Timestamp dt:dt=""int"">0</Timestamp><DateUtc dt:dt=""string"">2017-10-05T20:57:56Z</DateUtc></StartTime><FrequencyChanges><FrequencyChange><Frequency dt:dt=""r8"">2597685</Frequency><Timestamp dt:dt=""r8"">1558297906726</Timestamp><Current dt:dt=""r8"">0</Current><DateUtc dt:dt=""string"">2017-10-05T20:57:56Z</DateUtc></FrequencyChange></FrequencyChanges></Clock>\n",60.06,Nonnative Speaker,-774700513,10/5/2017,13:57:56,8:57:56 PM,female,3,Blockproc,SpeakerList,2,1,1,2,5,0,,-999999,21,130840,2,824,131664,SenarioProc,2,SenarioList,,,,9,1,5,9,2_9_pol.wav,2_9_cas.wav,2_9_pol.wav
PolitenessJapanese_Perception_ENG,1,1,20,"<?xml version=""1.0""?>\n<Clock xmlns:dt=""urn:schemas-microsoft-com:datatypes""><Description dt:dt=""string"">E-Prime Primary Realtime Clock</Description><StartTime><Timestamp dt:dt=""int"">0</Timestamp><DateUtc dt:dt=""string"">2017-10-05T20:57:56Z</DateUtc></StartTime><FrequencyChanges><FrequencyChange><Frequency dt:dt=""r8"">2597685</Frequency><Timestamp dt:dt=""r8"">1558297906726</Timestamp><Current dt:dt=""r8"">0</Current><DateUtc dt:dt=""string"">2017-10-05T20:57:56Z</DateUtc></FrequencyChange></FrequencyChanges></Clock>\n",60.06,Nonnative Speaker,-774700513,10/5/2017,13:57:56,8:57:56 PM,female,3,Blockproc,SpeakerList,2,1,1,2,6,0,,-999999,24,137050,1,830,137880,SenarioProc,2,SenarioList,,,,1,1,6,1,2_1_pol.wav,2_1_cas.wav,2_1_pol.wav
PolitenessJapanese_Perception_ENG,1,1,20,"<?xml version=""1.0""?>\n<Clock xmlns:dt=""urn:schemas-microsoft-com:datatypes""><Description dt:dt=""string"">E-Prime Primary Realtime Clock</Description><StartTime><Timestamp dt:dt=""int"">0</Timestamp><DateUtc dt:dt=""string"">2017-10-05T20:57:56Z</DateUtc></StartTime><FrequencyChanges><FrequencyChange><Frequency dt:dt=""r8"">2597685</Frequency><Timestamp dt:dt=""r8"">1558297906726</Timestamp><Current dt:dt=""r8"">0</Current><DateUtc dt:dt=""string"">2017-10-05T20:57:56Z</DateUtc></FrequencyChange></FrequencyChanges></Clock>\n",60.06,Nonnative Speaker,-774700513,10/5/2017,13:57:56,8:57:56 PM,female,3,Blockproc,SpeakerList,2,1,1,2,7,0,,-999999,29,143760,1,352,144112,SenarioProc,1,SenarioList,,,,5,1,7,5,2_5_cas.wav,2_5_pol.wav,2_5_cas.wav
PolitenessJapanese_Perception_ENG,1,1,20,"<?xml version=""1.0""?>\n<Clock xmlns:dt=""urn:schemas-microsoft-com:datatypes""><Description dt:dt=""string"">E-Prime Primary Realtime Clock</Description><StartTime><Timestamp dt:dt=""int"">0</Timestamp><DateUtc dt:dt=""string"">2017-10-05T20:57:56Z</DateUtc></StartTime><FrequencyChanges><FrequencyChange><Frequency dt:dt=""r8"">2597685</Frequency><Timestamp dt:dt=""r8"">1558297906726</Timestamp><Current dt:dt=""r8"">0</Current><DateUtc dt:dt=""string"">2017-10-05T20:57:56Z</DateUtc></FrequencyChange></FrequencyChanges></Clock>\n",60.06,Nonnative Speaker,-774700513,10/5/2017,13:57:56,8:57:56 PM,female,3,Blockproc,SpeakerList,2,1,1,2,8,0,,-999999,33,148772,1,620,149392,SenarioProc,1,SenarioList,,,,6,1,8,6,2_6_cas.wav,2_6_pol.wav,2_6_cas.wav
PolitenessJapanese_Perception_ENG,1,1,20,"<?xml version=""1.0""?>\n<Clock xmlns:dt=""urn:schemas-microsoft-com:datatypes""><Description dt:dt=""string"">E-Prime Primary Realtime Clock</Description><StartTime><Timestamp dt:dt=""int"">0</Timestamp><DateUtc dt:dt=""string"">2017-10-05T20:57:56Z</DateUtc></StartTime><FrequencyChanges><FrequencyChange><Frequency dt:dt=""r8"">2597685</Frequency><Timestamp dt:dt=""r8"">1558297906726</Timestamp><Current dt:dt=""r8"">0</Current><DateUtc dt:dt=""string"">2017-10-05T20:57:56Z</DateUtc></FrequencyChange></FrequencyChanges></Clock>\n",60.06,Nonnative Speaker,-774700513,10/5/2017,13:57:56,8:57:56 PM,female,3,Blockproc,SpeakerList,2,1,1,2,9,0,,-999999,30,155748,2,388,156136,SenarioProc,1,SenarioList,,,,8,1,9,8,2_8_cas.wav,2_8_pol.wav,2_8_cas.wav
PolitenessJapanese_Perception_ENG,1,1,20,"<?xml version=""1.0""?>\n<Clock xmlns:dt=""urn:schemas-microsoft-com:datatypes""><Description dt:dt=""string"">E-Prime Primary Realtime Clock</Description><StartTime><Timestamp dt:dt=""int"">0</Timestamp><DateUtc dt:dt=""string"">2017-10-05T20:57:56Z</DateUtc></StartTime><FrequencyChanges><FrequencyChange><Frequency dt:dt=""r8"">2597685</Frequency><Timestamp dt:dt=""r8"">1558297906726</Timestamp><Current dt:dt=""r8"">0</Current><DateUtc dt:dt=""string"">2017-10-05T20:57:56Z</DateUtc></FrequencyChange></FrequencyChanges></Clock>\n",60.06,Nonnative Speaker,-774700513,10/5/2017,13:57:56,8:57:56 PM,female,3,Blockproc,SpeakerList,2,1,1,2,10,0,,-999999,26,161809,2,1071,162880,SenarioProc,2,SenarioList,,,,3,1,10,3,2_3_pol.wav,2_3_cas.wav,2_3_pol.wav
PolitenessJapanese_Perception_ENG,1,1,20,"<?xml version=""1.0""?>\n<Clock xmlns:dt=""urn:schemas-microsoft-com:datatypes""><Description dt:dt=""string"">E-Prime Primary Realtime Clock</Description><StartTime><Timestamp dt:dt=""int"">0</Timestamp><DateUtc dt:dt=""string"">2017-10-05T20:57:56Z</DateUtc></StartTime><FrequencyChanges><FrequencyChange><Frequency dt:dt=""r8"">2597685</Frequency><Timestamp dt:dt=""r8"">1558297906726</Timestamp><Current dt:dt=""r8"">0</Current><DateUtc dt:dt=""string"">2017-10-05T20:57:56Z</DateUtc></FrequencyChange></FrequencyChanges></Clock>\n",60.06,Nonnative Speaker,-774700513,10/5/2017,13:57:56,8:57:56 PM,female,3,Blockproc,SpeakerList,2,1,1,2,11,0,,-999999,21,168336,2,448,168784,SoundProc,,SecondSenarioList,9,2,1,,,,9,2_9_cas.wav,2_9_pol.wav,
PolitenessJapanese_Perception_ENG,1,1,20,"<?xml version=""1.0""?>\n<Clock xmlns:dt=""urn:schemas-microsoft-com:datatypes""><Description dt:dt=""string"">E-Prime Primary Realtime Clock</Description><StartTime><Timestamp dt:dt=""int"">0</Timestamp><DateUtc dt:dt=""string"">2017-10-05T20:57:56Z</DateUtc></StartTime><FrequencyChanges><FrequencyChange><Frequency dt:dt=""r8"">2597685</Frequency><Timestamp dt:dt=""r8"">1558297906726</Timestamp><Current dt:dt=""r8"">0</Current><DateUtc dt:dt=""string"">2017-10-05T20:57:56Z</DateUtc></FrequencyChange></FrequencyChanges></Clock>\n",60.06,Nonnative Speaker,-774700513,10/5/2017,13:57:56,8:57:56 PM,female,3,Blockproc,SpeakerList,2,1,1,2,12,0,,-999999,22,175112,1,680,175792,SoundProc,,SecondSenarioList,8,2,2,,,,8,2_8_pol.wav,2_8_cas.wav,
PolitenessJapanese_Perception_ENG,1,1,20,"<?xml version=""1.0""?>\n<Clock xmlns:dt=""urn:schemas-microsoft-com:datatypes""><Description dt:dt=""string"">E-Prime Primary Realtime Clock</Description><StartTime><Timestamp dt:dt=""int"">0</Timestamp><DateUtc dt:dt=""string"">2017-10-05T20:57:56Z</DateUtc></StartTime><FrequencyChanges><FrequencyChange><Frequency dt:dt=""r8"">2597685</Frequency><Timestamp dt:dt=""r8"">1558297906726</Timestamp><Current dt:dt=""r8"">0</Current><DateUtc dt:dt=""string"">2017-10-05T20:57:56Z</DateUtc></FrequencyChange></FrequencyChanges></Clock>\n",60.06,Nonnative Speaker,-774700513,10/5/2017,13:57:56,8:57:56 PM,female,3,Blockproc,SpeakerList,2,1,1,2,13,0,,-999999,31,181156,2,596,181752,SoundProc,,SecondSenarioList,1,2,3,,,,1,2_1_cas.wav,2_1_pol.wav,
PolitenessJapanese_Perception_ENG,1,1,20,"<?xml version=""1.0""?>\n<Clock xmlns:dt=""urn:schemas-microsoft-com:datatypes""><Description dt:dt=""string"">E-Prime Primary Realtime Clock</Description><StartTime><Timestamp dt:dt=""int"">0</Timestamp><DateUtc dt:dt=""string"">2017-10-05T20:57:56Z</DateUtc></StartTime><FrequencyChanges><FrequencyChange><Frequency dt:dt=""r8"">2597685</Frequency><Timestamp dt:dt=""r8"">1558297906726</Timestamp><Current dt:dt=""r8"">0</Current><DateUtc dt:dt=""string"">2017-10-05T20:57:56Z</DateUtc></FrequencyChange></FrequencyChanges></Clock>\n",60.06,Nonnative Speaker,-774700513,10/5/2017,13:57:56,8:57:56 PM,female,3,Blockproc,SpeakerList,2,1,1,2,14,0,,-999999,22,186368,1,944,187312,SoundProc,,SecondSenarioList,6,2,4,,,,6,2_6_pol.wav,2_6_cas.wav,
PolitenessJapanese_Perception_ENG,1,1,20,"<?xml version=""1.0""?>\n<Clock xmlns:dt=""urn:schemas-microsoft-com:datatypes""><Description dt:dt=""string"">E-Prime Primary Realtime Clock</Description><StartTime><Timestamp dt:dt=""int"">0</Timestamp><DateUtc dt:dt=""string"">2017-10-05T20:57:56Z</DateUtc></StartTime><FrequencyChanges><FrequencyChange><Frequency dt:dt=""r8"">2597685</Frequency><Timestamp dt:dt=""r8"">1558297906726</Timestamp><Current dt:dt=""r8"">0</Current><DateUtc dt:dt=""string"">2017-10-05T20:57:56Z</DateUtc></FrequencyChange></FrequencyChanges></Clock>\n",60.06,Nonnative Speaker,-774700513,10/5/2017,13:57:56,8:57:56 PM,female,3,Blockproc,SpeakerList,2,1,1,2,15,0,,-999999,20,192329,1,926,193255,SoundProc,,SecondSenarioList,10,2,5,,,,10,2_10_cas.wav,2_10_pol.wav,
PolitenessJapanese_Perception_ENG,1,1,20,"<?xml version=""1.0""?>\n<Clock xmlns:dt=""urn:schemas-microsoft-com:datatypes""><Description dt:dt=""string"">E-Prime Primary Realtime Clock</Description><StartTime><Timestamp dt:dt=""int"">0</Timestamp><DateUtc dt:dt=""string"">2017-10-05T20:57:56Z</DateUtc></StartTime><FrequencyChanges><FrequencyChange><Frequency dt:dt=""r8"">2597685</Frequency><Timestamp dt:dt=""r8"">1558297906726</Timestamp><Current dt:dt=""r8"">0</Current><DateUtc dt:dt=""string"">2017-10-05T20:57:56Z</DateUtc></FrequencyChange></FrequencyChanges></Clock>\n",60.06,Nonnative Speaker,-774700513,10/5/2017,13:57:56,8:57:56 PM,female,3,Blockproc,SpeakerList,2,1,1,2,16,0,,-999999,25,198572,1,603,199175,SoundProc,,SecondSenarioList,2,2,6,,,,2,2_2_pol.wav,2_2_cas.wav,
PolitenessJapanese_Perception_ENG,1,1,20,"<?xml version=""1.0""?>\n<Clock xmlns:dt=""urn:schemas-microsoft-com:datatypes""><Description dt:dt=""string"">E-Prime Primary Realtime Clock</Description><StartTime><Timestamp dt:dt=""int"">0</Timestamp><DateUtc dt:dt=""string"">2017-10-05T20:57:56Z</DateUtc></StartTime><FrequencyChanges><FrequencyChange><Frequency dt:dt=""r8"">2597685</Frequency><Timestamp dt:dt=""r8"">1558297906726</Timestamp><Current dt:dt=""r8"">0</Current><DateUtc dt:dt=""string"">2017-10-05T20:57:56Z</DateUtc></FrequencyChange></FrequencyChanges></Clock>\n",60.06,Nonnative Speaker,-774700513,10/5/2017,13:57:56,8:57:56 PM,female,3,Blockproc,SpeakerList,2,1,1,2,17,0,,-999999,26,204983,2,712,205695,SoundProc,,SecondSenarioList,5,2,7,,,,5,2_5_pol.wav,2_5_cas.wav,
PolitenessJapanese_Perception_ENG,1,1,20,"<?xml version=""1.0""?>\n<Clock xmlns:dt=""urn:schemas-microsoft-com:datatypes""><Description dt:dt=""string"">E-Prime Primary Realtime Clock</Description><StartTime><Timestamp dt:dt=""int"">0</Timestamp><DateUtc dt:dt=""string"">2017-10-05T20:57:56Z</DateUtc></StartTime><FrequencyChanges><FrequencyChange><Frequency dt:dt=""r8"">2597685</Frequency><Timestamp dt:dt=""r8"">1558297906726</Timestamp><Current dt:dt=""r8"">0</Current><DateUtc dt:dt=""string"">2017-10-05T20:57:56Z</DateUtc></FrequencyChange></FrequencyChanges></Clock>\n",60.06,Nonnative Speaker,-774700513,10/5/2017,13:57:56,8:57:56 PM,female,3,Blockproc,SpeakerList,2,1,1,2,18,0,,-999999,26,212592,2,543,213135,SoundProc,,SecondSenarioList,4,2,8,,,,4,2_4_pol.wav,2_4_cas.wav,
PolitenessJapanese_Perception_ENG,1,1,20,"<?xml version=""1.0""?>\n<Clock xmlns:dt=""urn:schemas-microsoft-com:datatypes""><Description dt:dt=""string"">E-Prime Primary Realtime Clock</Description><StartTime><Timestamp dt:dt=""int"">0</Timestamp><DateUtc dt:dt=""string"">2017-10-05T20:57:56Z</DateUtc></StartTime><FrequencyChanges><FrequencyChange><Frequency dt:dt=""r8"">2597685</Frequency><Timestamp dt:dt=""r8"">1558297906726</Timestamp><Current dt:dt=""r8"">0</Current><DateUtc dt:dt=""string"">2017-10-05T20:57:56Z</DateUtc></FrequencyChange></FrequencyChanges></Clock>\n",60.06,Nonnative Speaker,-774700513,10/5/2017,13:57:56,8:57:56 PM,female,3,Blockproc,SpeakerList,2,1,1,2,19,0,,-999999,21,218286,2,289,218575,SoundProc,,SecondSenarioList,7,2,9,,,,7,2_7_cas.wav,2_7_pol.wav,
PolitenessJapanese_Perception_ENG,1,1,20,"<?xml version=""1.0""?>\n<Clock xmlns:dt=""urn:schemas-microsoft-com:datatypes""><Description dt:dt=""string"">E-Prime Primary Realtime Clock</Description><StartTime><Timestamp dt:dt=""int"">0</Timestamp><DateUtc dt:dt=""string"">2017-10-05T20:57:56Z</DateUtc></StartTime><FrequencyChanges><FrequencyChange><Frequency dt:dt=""r8"">2597685</Frequency><Timestamp dt:dt=""r8"">1558297906726</Timestamp><Current dt:dt=""r8"">0</Current><DateUtc dt:dt=""string"">2017-10-05T20:57:56Z</DateUtc></FrequencyChange></FrequencyChanges></Clock>\n",60.06,Nonnative Speaker,-774700513,10/5/2017,13:57:56,8:57:56 PM,female,3,Blockproc,SpeakerList,2,1,1,2,20,0,,-999999,19,224247,1,744,224991,SoundProc,,SecondSenarioList,3,2,10,,,,3,2_3_cas.wav,2_3_pol.wav,
PolitenessJapanese_Perception_ENG,1,1,20,"<?xml version=""1.0""?>\n<Clock xmlns:dt=""urn:schemas-microsoft-com:datatypes""><Description dt:dt=""string"">E-Prime Primary Realtime Clock</Description><StartTime><Timestamp dt:dt=""int"">0</Timestamp><DateUtc dt:dt=""string"">2017-10-05T20:57:56Z</DateUtc></StartTime><FrequencyChanges><FrequencyChange><Frequency dt:dt=""r8"">2597685</Frequency><Timestamp dt:dt=""r8"">1558297906726</Timestamp><Current dt:dt=""r8"">0</Current><DateUtc dt:dt=""string"">2017-10-05T20:57:56Z</DateUtc></FrequencyChange></FrequencyChanges></Clock>\n",60.06,Nonnative Speaker,-774700513,10/5/2017,13:57:56,8:57:56 PM,female,4,Blockproc,SpeakerList,3,1,2,3,1,0,,-999999,32,236135,1,552,236687,SenarioProc,2,SenarioList,,,,5,2,11,5,3_5_pol.wav,3_5_cas.wav,3_5_pol.wav
PolitenessJapanese_Perception_ENG,1,1,20,"<?xml version=""1.0""?>\n<Clock xmlns:dt=""urn:schemas-microsoft-com:datatypes""><Description dt:dt=""string"">E-Prime Primary Realtime Clock</Description><StartTime><Timestamp dt:dt=""int"">0</Timestamp><DateUtc dt:dt=""string"">2017-10-05T20:57:56Z</DateUtc></StartTime><FrequencyChanges><FrequencyChange><Frequency dt:dt=""r8"">2597685</Frequency><Timestamp dt:dt=""r8"">1558297906726</Timestamp><Current dt:dt=""r8"">0</Current><DateUtc dt:dt=""string"">2017-10-05T20:57:56Z</DateUtc></FrequencyChange></FrequencyChanges></Clock>\n",60.06,Nonnative Speaker,-774700513,10/5/2017,13:57:56,8:57:56 PM,female,4,Blockproc,SpeakerList,3,1,2,3,2,0,,-999999,33,242079,2,696,242775,SenarioProc,1,SenarioList,,,,10,2,12,10,3_10_cas.wav,3_10_pol.wav,3_10_cas.wav
PolitenessJapanese_Perception_ENG,1,1,20,"<?xml version=""1.0""?>\n<Clock xmlns:dt=""urn:schemas-microsoft-com:datatypes""><Description dt:dt=""string"">E-Prime Primary Realtime Clock</Description><StartTime><Timestamp dt:dt=""int"">0</Timestamp><DateUtc dt:dt=""string"">2017-10-05T20:57:56Z</DateUtc></StartTime><FrequencyChanges><FrequencyChange><Frequency dt:dt=""r8"">2597685</Frequency><Timestamp dt:dt=""r8"">1558297906726</Timestamp><Current dt:dt=""r8"">0</Current><DateUtc dt:dt=""string"">2017-10-05T20:57:56Z</DateUtc></FrequencyChange></FrequencyChanges></Clock>\n",60.06,Nonnative Speaker,-774700513,10/5/2017,13:57:56,8:57:56 PM,female,4,Blockproc,SpeakerList,3,1,2,3,3,0,,-999999,25,248806,2,417,249223,SenarioProc,2,SenarioList,,,,9,2,13,9,3_9_pol.wav,3_9_cas.wav,3_9_pol.wav
PolitenessJapanese_Perception_ENG,1,1,20,"<?xml version=""1.0""?>\n<Clock xmlns:dt=""urn:schemas-microsoft-com:datatypes""><Description dt:dt=""string"">E-Prime Primary Realtime Clock</Description><StartTime><Timestamp dt:dt=""int"">0</Timestamp><DateUtc dt:dt=""string"">2017-10-05T20:57:56Z</DateUtc></StartTime><FrequencyChanges><FrequencyChange><Frequency dt:dt=""r8"">2597685</Frequency><Timestamp dt:dt=""r8"">1558297906726</Timestamp><Current dt:dt=""r8"">0</Current><DateUtc dt:dt=""string"">2017-10-05T20:57:56Z</DateUtc></FrequencyChange></FrequencyChanges></Clock>\n",60.06,Nonnative Speaker,-774700513,10/5/2017,13:57:56,8:57:56 PM,female,4,Blockproc,SpeakerList,3,1,2,3,4,0,,-999999,22,254766,1,673,255439,SenarioProc,1,SenarioList,,,,7,2,14,7,3_7_cas.wav,3_7_pol.wav,3_7_cas.wav
PolitenessJapanese_Perception_ENG,1,1,20,"<?xml version=""1.0""?>\n<Clock xmlns:dt=""urn:schemas-microsoft-com:datatypes""><Description dt:dt=""string"">E-Prime Primary Realtime Clock</Description><StartTime><Timestamp dt:dt=""int"">0</Timestamp><DateUtc dt:dt=""string"">2017-10-05T20:57:56Z</DateUtc></StartTime><FrequencyChanges><FrequencyChange><Frequency dt:dt=""r8"">2597685</Frequency><Timestamp dt:dt=""r8"">1558297906726</Timestamp><Current dt:dt=""r8"">0</Current><DateUtc dt:dt=""string"">2017-10-05T20:57:56Z</DateUtc></FrequencyChange></FrequencyChanges></Clock>\n",60.06,Nonnative Speaker,-774700513,10/5/2017,13:57:56,8:57:56 PM,female,4,Blockproc,SpeakerList,3,1,2,3,5,0,,-999999,26,260977,2,414,261391,SenarioProc,2,SenarioList,,,,2,2,15,2,3_2_pol.wav,3_2_cas.wav,3_2_pol.wav
PolitenessJapanese_Perception_ENG,1,1,20,"<?xml version=""1.0""?>\n<Clock xmlns:dt=""urn:schemas-microsoft-com:datatypes""><Description dt:dt=""string"">E-Prime Primary Realtime Clock</Description><StartTime><Timestamp dt:dt=""int"">0</Timestamp><DateUtc dt:dt=""string"">2017-10-05T20:57:56Z</DateUtc></StartTime><FrequencyChanges><FrequencyChange><Frequency dt:dt=""r8"">2597685</Frequency><Timestamp dt:dt=""r8"">1558297906726</Timestamp><Current dt:dt=""r8"">0</Current><DateUtc dt:dt=""string"">2017-10-05T20:57:56Z</DateUtc></FrequencyChange></FrequencyChanges></Clock>\n",60.06,Nonnative Speaker,-774700513,10/5/2017,13:57:56,8:57:56 PM,female,4,Blockproc,SpeakerList,3,1,2,3,6,0,,-999999,28,267054,2,593,267647,SenarioProc,2,SenarioList,,,,1,2,16,1,3_1_pol.wav,3_1_cas.wav,3_1_pol.wav
PolitenessJapanese_Perception_ENG,1,1,20,"<?xml version=""1.0""?>\n<Clock xmlns:dt=""urn:schemas-microsoft-com:datatypes""><Description dt:dt=""string"">E-Prime Primary Realtime Clock</Description><StartTime><Timestamp dt:dt=""int"">0</Timestamp><DateUtc dt:dt=""string"">2017-10-05T20:57:56Z</DateUtc></StartTime><FrequencyChanges><FrequencyChange><Frequency dt:dt=""r8"">2597685</Frequency><Timestamp dt:dt=""r8"">1558297906726</Timestamp><Current dt:dt=""r8"">0</Current><DateUtc dt:dt=""string"">2017-10-05T20:57:56Z</DateUtc></FrequencyChange></FrequencyChanges></Clock>\n",60.06,Nonnative Speaker,-774700513,10/5/2017,13:57:56,8:57:56 PM,female,4,Blockproc,SpeakerList,3,1,2,3,7,0,,-999999,28,273647,1,592,274239,SenarioProc,1,SenarioList,,,,3,2,17,3,3_3_cas.wav,3_3_pol.wav,3_3_cas.wav
PolitenessJapanese_Perception_ENG,1,1,20,"<?xml version=""1.0""?>\n<Clock xmlns:dt=""urn:schemas-microsoft-com:datatypes""><Description dt:dt=""string"">E-Prime Primary Realtime Clock</Description><StartTime><Timestamp dt:dt=""int"">0</Timestamp><DateUtc dt:dt=""string"">2017-10-05T20:57:56Z</DateUtc></StartTime><FrequencyChanges><FrequencyChange><Frequency dt:dt=""r8"">2597685</Frequency><Timestamp dt:dt=""r8"">1558297906726</Timestamp><Current dt:dt=""r8"">0</Current><DateUtc dt:dt=""string"">2017-10-05T20:57:56Z</DateUtc></FrequencyChange></FrequencyChanges></Clock>\n",60.06,Nonnative Speaker,-774700513,10/5/2017,13:57:56,8:57:56 PM,female,4,Blockproc,SpeakerList,3,1,2,3,8,0,,-999999,28,279691,1,684,280375,SenarioProc,1,SenarioList,,,,6,2,18,6,3_6_cas.wav,3_6_pol.wav,3_6_cas.wav
PolitenessJapanese_Perception_ENG,1,1,20,"<?xml version=""1.0""?>\n<Clock xmlns:dt=""urn:schemas-microsoft-com:datatypes""><Description dt:dt=""string"">E-Prime Primary Realtime Clock</Description><StartTime><Timestamp dt:dt=""int"">0</Timestamp><DateUtc dt:dt=""string"">2017-10-05T20:57:56Z</DateUtc></StartTime><FrequencyChanges><FrequencyChange><Frequency dt:dt=""r8"">2597685</Frequency><Timestamp dt:dt=""r8"">1558297906726</Timestamp><Current dt:dt=""r8"">0</Current><DateUtc dt:dt=""string"">2017-10-05T20:57:56Z</DateUtc></FrequencyChange></FrequencyChanges></Clock>\n",60.06,Nonnative Speaker,-774700513,10/5/2017,13:57:56,8:57:56 PM,female,4,Blockproc,SpeakerList,3,1,2,3,9,0,,-999999,25,286901,2,497,287398,SenarioProc,2,SenarioList,,,,8,2,19,8,3_8_pol.wav,3_8_cas.wav,3_8_pol.wav
PolitenessJapanese_Perception_ENG,1,1,20,"<?xml version=""1.0""?>\n<Clock xmlns:dt=""urn:schemas-microsoft-com:datatypes""><Description dt:dt=""string"">E-Prime Primary Realtime Clock</Description><StartTime><Timestamp dt:dt=""int"">0</Timestamp><DateUtc dt:dt=""string"">2017-10-05T20:57:56Z</DateUtc></StartTime><FrequencyChanges><FrequencyChange><Frequency dt:dt=""r8"">2597685</Frequency><Timestamp dt:dt=""r8"">1558297906726</Timestamp><Current dt:dt=""r8"">0</Current><DateUtc dt:dt=""string"">2017-10-05T20:57:56Z</DateUtc></FrequencyChange></FrequencyChanges></Clock>\n",60.06,Nonnative Speaker,-774700513,10/5/2017,13:57:56,8:57:56 PM,female,4,Blockproc,SpeakerList,3,1,2,3,10,0,,-999999,26,294643,2,443,295086,SenarioProc,2,SenarioList,,,,4,2,20,4,3_4_pol.wav,3_4_cas.wav,3_4_pol.wav
PolitenessJapanese_Perception_ENG,1,1,20,"<?xml version=""1.0""?>\n<Clock xmlns:dt=""urn:schemas-microsoft-com:datatypes""><Description dt:dt=""string"">E-Prime Primary Realtime Clock</Description><StartTime><Timestamp dt:dt=""int"">0</Timestamp><DateUtc dt:dt=""string"">2017-10-05T20:57:56Z</DateUtc></StartTime><FrequencyChanges><FrequencyChange><Frequency dt:dt=""r8"">2597685</Frequency><Timestamp dt:dt=""r8"">1558297906726</Timestamp><Current dt:dt=""r8"">0</Current><DateUtc dt:dt=""string"">2017-10-05T20:57:56Z</DateUtc></FrequencyChange></FrequencyChanges></Clock>\n",60.06,Nonnative Speaker,-774700513,10/5/2017,13:57:56,8:57:56 PM,female,4,Blockproc,SpeakerList,3,1,2,3,11,0,,-999999,25,301103,2,423,301526,SoundProc,,SecondSenarioList,9,4,11,,,,9,3_9_cas.wav,3_9_pol.wav,
PolitenessJapanese_Perception_ENG,1,1,20,"<?xml version=""1.0""?>\n<Clock xmlns:dt=""urn:schemas-microsoft-com:datatypes""><Description dt:dt=""string"">E-Prime Primary Realtime Clock</Description><StartTime><Timestamp dt:dt=""int"">0</Timestamp><DateUtc dt:dt=""string"">2017-10-05T20:57:56Z</DateUtc></StartTime><FrequencyChanges><FrequencyChange><Frequency dt:dt=""r8"">2597685</Frequency><Timestamp dt:dt=""r8"">1558297906726</Timestamp><Current dt:dt=""r8"">0</Current><DateUtc dt:dt=""string"">2017-10-05T20:57:56Z</DateUtc></FrequencyChange></FrequencyChanges></Clock>\n",60.06,Nonnative Speaker,-774700513,10/5/2017,13:57:56,8:57:56 PM,female,4,Blockproc,SpeakerList,3,1,2,3,12,0,,-999999,19,307131,1,459,307590,SoundProc,,SecondSenarioList,1,4,12,,,,1,3_1_cas.wav,3_1_pol.wav,
PolitenessJapanese_Perception_ENG,1,1,20,"<?xml version=""1.0""?>\n<Clock xmlns:dt=""urn:schemas-microsoft-com:datatypes""><Description dt:dt=""string"">E-Prime Primary Realtime Clock</Description><StartTime><Timestamp dt:dt=""int"">0</Timestamp><DateUtc dt:dt=""string"">2017-10-05T20:57:56Z</DateUtc></StartTime><FrequencyChanges><FrequencyChange><Frequency dt:dt=""r8"">2597685</Frequency><Timestamp dt:dt=""r8"">1558297906726</Timestamp><Current dt:dt=""r8"">0</Current><DateUtc dt:dt=""string"">2017-10-05T20:57:56Z</DateUtc></FrequencyChange></FrequencyChanges></Clock>\n",60.06,Nonnative Speaker,-774700513,10/5/2017,13:57:56,8:57:56 PM,female,4,Blockproc,SpeakerList,3,1,2,3,13,0,,-999999,26,313558,1,312,313870,SoundProc,,SecondSenarioList,3,4,13,,,,3,3_3_pol.wav,3_3_cas.wav,
PolitenessJapanese_Perception_ENG,1,1,20,"<?xml version=""1.0""?>\n<Clock xmlns:dt=""urn:schemas-microsoft-com:datatypes""><Description dt:dt=""string"">E-Prime Primary Realtime Clock</Description><StartTime><Timestamp dt:dt=""int"">0</Timestamp><DateUtc dt:dt=""string"">2017-10-05T20:57:56Z</DateUtc></StartTime><FrequencyChanges><FrequencyChange><Frequency dt:dt=""r8"">2597685</Frequency><Timestamp dt:dt=""r8"">1558297906726</Timestamp><Current dt:dt=""r8"">0</Current><DateUtc dt:dt=""string"">2017-10-05T20:57:56Z</DateUtc></FrequencyChange></FrequencyChanges></Clock>\n",60.06,Nonnative Speaker,-774700513,10/5/2017,13:57:56,8:57:56 PM,female,4,Blockproc,SpeakerList,3,1,2,3,14,0,,-999999,26,320151,1,623,320774,SoundProc,,SecondSenarioList,5,4,14,,,,5,3_5_cas.wav,3_5_pol.wav,
PolitenessJapanese_Perception_ENG,1,1,20,"<?xml version=""1.0""?>\n<Clock xmlns:dt=""urn:schemas-microsoft-com:datatypes""><Description dt:dt=""string"">E-Prime Primary Realtime Clock</Description><StartTime><Timestamp dt:dt=""int"">0</Timestamp><DateUtc dt:dt=""string"">2017-10-05T20:57:56Z</DateUtc></StartTime><FrequencyChanges><FrequencyChange><Frequency dt:dt=""r8"">2597685</Frequency><Timestamp dt:dt=""r8"">1558297906726</Timestamp><Current dt:dt=""r8"">0</Current><DateUtc dt:dt=""string"">2017-10-05T20:57:56Z</DateUtc></FrequencyChange></FrequencyChanges></Clock>\n",60.06,Nonnative Speaker,-774700513,10/5/2017,13:57:56,8:57:56 PM,female,4,Blockproc,SpeakerList,3,1,2,3,15,0,,-999999,24,326112,2,950,327062,SoundProc,,SecondSenarioList,10,4,15,,,,10,3_10_pol.wav,3_10_cas.wav,
PolitenessJapanese_Perception_ENG,1,1,20,"<?xml version=""1.0""?>\n<Clock xmlns:dt=""urn:schemas-microsoft-com:datatypes""><Description dt:dt=""string"">E-Prime Primary Realtime Clock</Description><StartTime><Timestamp dt:dt=""int"">0</Timestamp><DateUtc dt:dt=""string"">2017-10-05T20:57:56Z</DateUtc></StartTime><FrequencyChanges><FrequencyChange><Frequency dt:dt=""r8"">2597685</Frequency><Timestamp dt:dt=""r8"">1558297906726</Timestamp><Current dt:dt=""r8"">0</Current><DateUtc dt:dt=""string"">2017-10-05T20:57:56Z</DateUtc></FrequencyChange></FrequencyChanges></Clock>\n",60.06,Nonnative Speaker,-774700513,10/5/2017,13:57:56,8:57:56 PM,female,4,Blockproc,SpeakerList,3,1,2,3,16,0,,-999999,20,333554,1,460,334014,SoundProc,,SecondSenarioList,8,4,16,,,,8,3_8_cas.wav,3_8_pol.wav,
PolitenessJapanese_Perception_ENG,1,1,20,"<?xml version=""1.0""?>\n<Clock xmlns:dt=""urn:schemas-microsoft-com:datatypes""><Description dt:dt=""string"">E-Prime Primary Realtime Clock</Description><StartTime><Timestamp dt:dt=""int"">0</Timestamp><DateUtc dt:dt=""string"">2017-10-05T20:57:56Z</DateUtc></StartTime><FrequencyChanges><FrequencyChange><Frequency dt:dt=""r8"">2597685</Frequency><Timestamp dt:dt=""r8"">1558297906726</Timestamp><Current dt:dt=""r8"">0</Current><DateUtc dt:dt=""string"">2017-10-05T20:57:56Z</DateUtc></FrequencyChange></FrequencyChanges></Clock>\n",60.06,Nonnative Speaker,-774700513,10/5/2017,13:57:56,8:57:56 PM,female,4,Blockproc,SpeakerList,3,1,2,3,17,0,,-999999,34,339582,1,840,340422,SoundProc,,SecondSenarioList,2,4,17,,,,2,3_2_cas.wav,3_2_pol.wav,
PolitenessJapanese_Perception_ENG,1,1,20,"<?xml version=""1.0""?>\n<Clock xmlns:dt=""urn:schemas-microsoft-com:datatypes""><Description dt:dt=""string"">E-Prime Primary Realtime Clock</Description><StartTime><Timestamp dt:dt=""int"">0</Timestamp><DateUtc dt:dt=""string"">2017-10-05T20:57:56Z</DateUtc></StartTime><FrequencyChanges><FrequencyChange><Frequency dt:dt=""r8"">2597685</Frequency><Timestamp dt:dt=""r8"">1558297906726</Timestamp><Current dt:dt=""r8"">0</Current><DateUtc dt:dt=""string"">2017-10-05T20:57:56Z</DateUtc></FrequencyChange></FrequencyChanges></Clock>\n",60.06,Nonnative Speaker,-774700513,10/5/2017,13:57:56,8:57:56 PM,female,4,Blockproc,SpeakerList,3,1,2,3,18,0,,-999999,26,347640,2,582,348222,SoundProc,,SecondSenarioList,4,4,18,,,,4,3_4_cas.wav,3_4_pol.wav,
PolitenessJapanese_Perception_ENG,1,1,20,"<?xml version=""1.0""?>\n<Clock xmlns:dt=""urn:schemas-microsoft-com:datatypes""><Description dt:dt=""string"">E-Prime Primary Realtime Clock</Description><StartTime><Timestamp dt:dt=""int"">0</Timestamp><DateUtc dt:dt=""string"">2017-10-05T20:57:56Z</DateUtc></StartTime><FrequencyChanges><FrequencyChange><Frequency dt:dt=""r8"">2597685</Frequency><Timestamp dt:dt=""r8"">1558297906726</Timestamp><Current dt:dt=""r8"">0</Current><DateUtc dt:dt=""string"">2017-10-05T20:57:56Z</DateUtc></FrequencyChange></FrequencyChanges></Clock>\n",60.06,Nonnative Speaker,-774700513,10/5/2017,13:57:56,8:57:56 PM,female,4,Blockproc,SpeakerList,3,1,2,3,19,0,,-999999,31,353751,1,671,354422,SoundProc,,SecondSenarioList,7,4,19,,,,7,3_7_pol.wav,3_7_cas.wav,
PolitenessJapanese_Perception_ENG,1,1,20,"<?xml version=""1.0""?>\n<Clock xmlns:dt=""urn:schemas-microsoft-com:datatypes""><Description dt:dt=""string"">E-Prime Primary Realtime Clock</Description><StartTime><Timestamp dt:dt=""int"">0</Timestamp><DateUtc dt:dt=""string"">2017-10-05T20:57:56Z</DateUtc></StartTime><FrequencyChanges><FrequencyChange><Frequency dt:dt=""r8"">2597685</Frequency><Timestamp dt:dt=""r8"">1558297906726</Timestamp><Current dt:dt=""r8"">0</Current><DateUtc dt:dt=""string"">2017-10-05T20:57:56Z</DateUtc></FrequencyChange></FrequencyChanges></Clock>\n",60.06,Nonnative Speaker,-774700513,10/5/2017,13:57:56,8:57:56 PM,female,4,Blockproc,SpeakerList,3,1,2,3,20,0,,-999999,21,359795,1,427,360222,SoundProc,,SecondSenarioList,6,4,20,,,,6,3_6_pol.wav,3_6_cas.wav,
PolitenessJapanese_Perception_ENG,1,1,20,"<?xml version=""1.0""?>\n<Clock xmlns:dt=""urn:schemas-microsoft-com:datatypes""><Description dt:dt=""string"">E-Prime Primary Realtime Clock</Description><StartTime><Timestamp dt:dt=""int"">0</Timestamp><DateUtc dt:dt=""string"">2017-10-05T20:57:56Z</DateUtc></StartTime><FrequencyChanges><FrequencyChange><Frequency dt:dt=""r8"">2597685</Frequency><Timestamp dt:dt=""r8"">1558297906726</Timestamp><Current dt:dt=""r8"">0</Current><DateUtc dt:dt=""string"">2017-10-05T20:57:56Z</DateUtc></FrequencyChange></FrequencyChanges></Clock>\n",60.06,Nonnative Speaker,-774700513,10/5/2017,13:57:56,8:57:56 PM,female,5,Blockproc,SpeakerList,1,1,3,1,1,0,,-999999,32,370767,1,855,371622,SenarioProc,1,SenarioList,,,,1,3,21,1,1_1_cas.wav,1_1_pol.wav,1_1_cas.wav
PolitenessJapanese_Perception_ENG,1,1,20,"<?xml version=""1.0""?>\n<Clock xmlns:dt=""urn:schemas-microsoft-com:datatypes""><Description dt:dt=""string"">E-Prime Primary Realtime Clock</Description><StartTime><Timestamp dt:dt=""int"">0</Timestamp><DateUtc dt:dt=""string"">2017-10-05T20:57:56Z</DateUtc></StartTime><FrequencyChanges><FrequencyChange><Frequency dt:dt=""r8"">2597685</Frequency><Timestamp dt:dt=""r8"">1558297906726</Timestamp><Current dt:dt=""r8"">0</Current><DateUtc dt:dt=""string"">2017-10-05T20:57:56Z</DateUtc></FrequencyChange></FrequencyChanges></Clock>\n",60.06,Nonnative Speaker,-774700513,10/5/2017,13:57:56,8:57:56 PM,female,5,Blockproc,SpeakerList,1,1,3,1,2,0,,-999999,33,377361,1,420,377781,SenarioProc,1,SenarioList,,,,5,3,22,5,1_5_cas.wav,1_5_pol.wav,1_5_cas.wav
PolitenessJapanese_Perception_ENG,1,1,20,"<?xml version=""1.0""?>\n<Clock xmlns:dt=""urn:schemas-microsoft-com:datatypes""><Description dt:dt=""string"">E-Prime Primary Realtime Clock</Description><StartTime><Timestamp dt:dt=""int"">0</Timestamp><DateUtc dt:dt=""string"">2017-10-05T20:57:56Z</DateUtc></StartTime><FrequencyChanges><FrequencyChange><Frequency dt:dt=""r8"">2597685</Frequency><Timestamp dt:dt=""r8"">1558297906726</Timestamp><Current dt:dt=""r8"">0</Current><DateUtc dt:dt=""string"">2017-10-05T20:57:56Z</DateUtc></FrequencyChange></FrequencyChanges></Clock>\n",60.06,Nonnative Speaker,-774700513,10/5/2017,13:57:56,8:57:56 PM,female,5,Blockproc,SpeakerList,1,1,3,1,3,0,,-999999,33,383588,1,545,384133,SenarioProc,1,SenarioList,,,,8,3,23,8,1_8_cas.wav,1_8_pol.wav,1_8_cas.wav
PolitenessJapanese_Perception_ENG,1,1,20,"<?xml version=""1.0""?>\n<Clock xmlns:dt=""urn:schemas-microsoft-com:datatypes""><Description dt:dt=""string"">E-Prime Primary Realtime Clock</Description><StartTime><Timestamp dt:dt=""int"">0</Timestamp><DateUtc dt:dt=""string"">2017-10-05T20:57:56Z</DateUtc></StartTime><FrequencyChanges><FrequencyChange><Frequency dt:dt=""r8"">2597685</Frequency><Timestamp dt:dt=""r8"">1558297906726</Timestamp><Current dt:dt=""r8"">0</Current><DateUtc dt:dt=""string"">2017-10-05T20:57:56Z</DateUtc></FrequencyChange></FrequencyChanges></Clock>\n",60.06,Nonnative Speaker,-774700513,10/5/2017,13:57:56,8:57:56 PM,female,5,Blockproc,SpeakerList,1,1,3,1,4,0,,-999999,21,390464,1,501,390965,SenarioProc,2,SenarioList,,,,4,3,24,4,1_4_pol.wav,1_4_cas.wav,1_4_pol.wav
PolitenessJapanese_Perception_ENG,1,1,20,"<?xml version=""1.0""?>\n<Clock xmlns:dt=""urn:schemas-microsoft-com:datatypes""><Description dt:dt=""string"">E-Prime Primary Realtime Clock</Description><StartTime><Timestamp dt:dt=""int"">0</Timestamp><DateUtc dt:dt=""string"">2017-10-05T20:57:56Z</DateUtc></StartTime><FrequencyChanges><FrequencyChange><Frequency dt:dt=""r8"">2597685</Frequency><Timestamp dt:dt=""r8"">1558297906726</Timestamp><Current dt:dt=""r8"">0</Current><DateUtc dt:dt=""string"">2017-10-05T20:57:56Z</DateUtc></FrequencyChange></FrequencyChanges></Clock>\n",60.06,Nonnative Speaker,-774700513,10/5/2017,13:57:56,8:57:56 PM,female,5,Blockproc,SpeakerList,1,1,3,1,5,0,,-999999,20,396325,2,448,396773,SenarioProc,2,SenarioList,,,,10,3,25,10,1_10_pol.wav,1_10_cas.wav,1_10_pol.wav
PolitenessJapanese_Perception_ENG,1,1,20,"<?xml version=""1.0""?>\n<Clock xmlns:dt=""urn:schemas-microsoft-com:datatypes""><Description dt:dt=""string"">E-Prime Primary Realtime Clock</Description><StartTime><Timestamp dt:dt=""int"">0</Timestamp><DateUtc dt:dt=""string"">2017-10-05T20:57:56Z</DateUtc></StartTime><FrequencyChanges><FrequencyChange><Frequency dt:dt=""r8"">2597685</Frequency><Timestamp dt:dt=""r8"">1558297906726</Timestamp><Current dt:dt=""r8"">0</Current><DateUtc dt:dt=""string"">2017-10-05T20:57:56Z</DateUtc></FrequencyChange></FrequencyChanges></Clock>\n",60.06,Nonnative Speaker,-774700513,10/5/2017,13:57:56,8:57:56 PM,female,5,Blockproc,SpeakerList,1,1,3,1,6,0,,-999999,27,402569,1,492,403061,SenarioProc,2,SenarioList,,,,3,3,26,3,1_3_pol.wav,1_3_cas.wav,1_3_pol.wav
PolitenessJapanese_Perception_ENG,1,1,20,"<?xml version=""1.0""?>\n<Clock xmlns:dt=""urn:schemas-microsoft-com:datatypes""><Description dt:dt=""string"">E-Prime Primary Realtime Clock</Description><StartTime><Timestamp dt:dt=""int"">0</Timestamp><DateUtc dt:dt=""string"">2017-10-05T20:57:56Z</DateUtc></StartTime><FrequencyChanges><FrequencyChange><Frequency dt:dt=""r8"">2597685</Frequency><Timestamp dt:dt=""r8"">1558297906726</Timestamp><Current dt:dt=""r8"">0</Current><DateUtc dt:dt=""string"">2017-10-05T20:57:56Z</DateUtc></FrequencyChange></FrequencyChanges></Clock>\n",60.06,Nonnative Speaker,-774700513,10/5/2017,13:57:56,8:57:56 PM,female,5,Blockproc,SpeakerList,1,1,3,1,7,0,,-999999,22,407897,2,396,408293,SenarioProc,1,SenarioList,,,,6,3,27,6,1_6_cas.wav,1_6_pol.wav,1_6_cas.wav
PolitenessJapanese_Perception_ENG,1,1,20,"<?xml version=""1.0""?>\n<Clock xmlns:dt=""urn:schemas-microsoft-com:datatypes""><Description dt:dt=""string"">E-Prime Primary Realtime Clock</Description><StartTime><Timestamp dt:dt=""int"">0</Timestamp><DateUtc dt:dt=""string"">2017-10-05T20:57:56Z</DateUtc></StartTime><FrequencyChanges><FrequencyChange><Frequency dt:dt=""r8"">2597685</Frequency><Timestamp dt:dt=""r8"">1558297906726</Timestamp><Current dt:dt=""r8"">0</Current><DateUtc dt:dt=""string"">2017-10-05T20:57:56Z</DateUtc></FrequencyChange></FrequencyChanges></Clock>\n",60.06,Nonnative Speaker,-774700513,10/5/2017,13:57:56,8:57:56 PM,female,5,Blockproc,SpeakerList,1,1,3,1,8,0,,-999999,33,413292,1,841,414133,SenarioProc,1,SenarioList,,,,9,3,28,9,1_9_cas.wav,1_9_pol.wav,1_9_cas.wav
PolitenessJapanese_Perception_ENG,1,1,20,"<?xml version=""1.0""?>\n<Clock xmlns:dt=""urn:schemas-microsoft-com:datatypes""><Description dt:dt=""string"">E-Prime Primary Realtime Clock</Description><StartTime><Timestamp dt:dt=""int"">0</Timestamp><DateUtc dt:dt=""string"">2017-10-05T20:57:56Z</DateUtc></StartTime><FrequencyChanges><FrequencyChange><Frequency dt:dt=""r8"">2597685</Frequency><Timestamp dt:dt=""r8"">1558297906726</Timestamp><Current dt:dt=""r8"">0</Current><DateUtc dt:dt=""string"">2017-10-05T20:57:56Z</DateUtc></FrequencyChange></FrequencyChanges></Clock>\n",60.06,Nonnative Speaker,-774700513,10/5/2017,13:57:56,8:57:56 PM,female,5,Blockproc,SpeakerList,1,1,3,1,9,0,,-999999,24,419053,2,952,420005,SenarioProc,1,SenarioList,,,,7,3,29,7,1_7_cas.wav,1_7_pol.wav,1_7_cas.wav
PolitenessJapanese_Perception_ENG,1,1,20,"<?xml version=""1.0""?>\n<Clock xmlns:dt=""urn:schemas-microsoft-com:datatypes""><Description dt:dt=""string"">E-Prime Primary Realtime Clock</Description><StartTime><Timestamp dt:dt=""int"">0</Timestamp><DateUtc dt:dt=""string"">2017-10-05T20:57:56Z</DateUtc></StartTime><FrequencyChanges><FrequencyChange><Frequency dt:dt=""r8"">2597685</Frequency><Timestamp dt:dt=""r8"">1558297906726</Timestamp><Current dt:dt=""r8"">0</Current><DateUtc dt:dt=""string"">2017-10-05T20:57:56Z</DateUtc></FrequencyChange></FrequencyChanges></Clock>\n",60.06,Nonnative Speaker,-774700513,10/5/2017,13:57:56,8:57:56 PM,female,5,Blockproc,SpeakerList,1,1,3,1,10,0,,-999999,21,424963,1,458,425421,SenarioProc,2,SenarioList,,,,2,3,30,2,1_2_pol.wav,1_2_cas.wav,1_2_pol.wav
PolitenessJapanese_Perception_ENG,1,1,20,"<?xml version=""1.0""?>\n<Clock xmlns:dt=""urn:schemas-microsoft-com:datatypes""><Description dt:dt=""string"">E-Prime Primary Realtime Clock</Description><StartTime><Timestamp dt:dt=""int"">0</Timestamp><DateUtc dt:dt=""string"">2017-10-05T20:57:56Z</DateUtc></StartTime><FrequencyChanges><FrequencyChange><Frequency dt:dt=""r8"">2597685</Frequency><Timestamp dt:dt=""r8"">1558297906726</Timestamp><Current dt:dt=""r8"">0</Current><DateUtc dt:dt=""string"">2017-10-05T20:57:56Z</DateUtc></FrequencyChange></FrequencyChanges></Clock>\n",60.06,Nonnative Speaker,-774700513,10/5/2017,13:57:56,8:57:56 PM,female,5,Blockproc,SpeakerList,1,1,3,1,11,0,,-999999,32,431790,1,471,432261,SoundProc,,SecondSenarioList,4,6,21,,,,4,1_4_cas.wav,1_4_pol.wav,
PolitenessJapanese_Perception_ENG,1,1,20,"<?xml version=""1.0""?>\n<Clock xmlns:dt=""urn:schemas-microsoft-com:datatypes""><Description dt:dt=""string"">E-Prime Primary Realtime Clock</Description><StartTime><Timestamp dt:dt=""int"">0</Timestamp><DateUtc dt:dt=""string"">2017-10-05T20:57:56Z</DateUtc></StartTime><FrequencyChanges><FrequencyChange><Frequency dt:dt=""r8"">2597685</Frequency><Timestamp dt:dt=""r8"">1558297906726</Timestamp><Current dt:dt=""r8"">0</Current><DateUtc dt:dt=""string"">2017-10-05T20:57:56Z</DateUtc></FrequencyChange></FrequencyChanges></Clock>\n",60.06,Nonnative Speaker,-774700513,10/5/2017,13:57:56,8:57:56 PM,female,5,Blockproc,SpeakerList,1,1,3,1,12,0,,-999999,27,437118,1,767,437885,SoundProc,,SecondSenarioList,7,6,22,,,,7,1_7_pol.wav,1_7_cas.wav,
PolitenessJapanese_Perception_ENG,1,1,20,"<?xml version=""1.0""?>\n<Clock xmlns:dt=""urn:schemas-microsoft-com:datatypes""><Description dt:dt=""string"">E-Prime Primary Realtime Clock</Description><StartTime><Timestamp dt:dt=""int"">0</Timestamp><DateUtc dt:dt=""string"">2017-10-05T20:57:56Z</DateUtc></StartTime><FrequencyChanges><FrequencyChange><Frequency dt:dt=""r8"">2597685</Frequency><Timestamp dt:dt=""r8"">1558297906726</Timestamp><Current dt:dt=""r8"">0</Current><DateUtc dt:dt=""string"">2017-10-05T20:57:56Z</DateUtc></FrequencyChange></FrequencyChanges></Clock>\n",60.06,Nonnative Speaker,-774700513,10/5/2017,13:57:56,8:57:56 PM,female,5,Blockproc,SpeakerList,1,1,3,1,13,0,,-999999,35,442896,1,253,443149,SoundProc,,SecondSenarioList,9,6,23,,,,9,1_9_pol.wav,1_9_cas.wav,
PolitenessJapanese_Perception_ENG,1,1,20,"<?xml version=""1.0""?>\n<Clock xmlns:dt=""urn:schemas-microsoft-com:datatypes""><Description dt:dt=""string"">E-Prime Primary Realtime Clock</Description><StartTime><Timestamp dt:dt=""int"">0</Timestamp><DateUtc dt:dt=""string"">2017-10-05T20:57:56Z</DateUtc></StartTime><FrequencyChanges><FrequencyChange><Frequency dt:dt=""r8"">2597685</Frequency><Timestamp dt:dt=""r8"">1558297906726</Timestamp><Current dt:dt=""r8"">0</Current><DateUtc dt:dt=""string"">2017-10-05T20:57:56Z</DateUtc></FrequencyChange></FrequencyChanges></Clock>\n",60.06,Nonnative Speaker,-774700513,10/5/2017,13:57:56,8:57:56 PM,female,5,Blockproc,SpeakerList,1,1,3,1,14,0,,-999999,34,448473,2,556,449029,SoundProc,,SecondSenarioList,10,6,24,,,,10,1_10_cas.wav,1_10_pol.wav,
PolitenessJapanese_Perception_ENG,1,1,20,"<?xml version=""1.0""?>\n<Clock xmlns:dt=""urn:schemas-microsoft-com:datatypes""><Description dt:dt=""string"">E-Prime Primary Realtime Clock</Description><StartTime><Timestamp dt:dt=""int"">0</Timestamp><DateUtc dt:dt=""string"">2017-10-05T20:57:56Z</DateUtc></StartTime><FrequencyChanges><FrequencyChange><Frequency dt:dt=""r8"">2597685</Frequency><Timestamp dt:dt=""r8"">1558297906726</Timestamp><Current dt:dt=""r8"">0</Current><DateUtc dt:dt=""string"">2017-10-05T20:57:56Z</DateUtc></FrequencyChange></FrequencyChanges></Clock>\n",60.06,Nonnative Speaker,-774700513,10/5/2017,13:57:56,8:57:56 PM,female,5,Blockproc,SpeakerList,1,1,3,1,15,0,,-999999,26,454834,1,499,455333,SoundProc,,SecondSenarioList,8,6,25,,,,8,1_8_pol.wav,1_8_cas.wav,
PolitenessJapanese_Perception_ENG,1,1,20,"<?xml version=""1.0""?>\n<Clock xmlns:dt=""urn:schemas-microsoft-com:datatypes""><Description dt:dt=""string"">E-Prime Primary Realtime Clock</Description><StartTime><Timestamp dt:dt=""int"">0</Timestamp><DateUtc dt:dt=""string"">2017-10-05T20:57:56Z</DateUtc></StartTime><FrequencyChanges><FrequencyChange><Frequency dt:dt=""r8"">2597685</Frequency><Timestamp dt:dt=""r8"">1558297906726</Timestamp><Current dt:dt=""r8"">0</Current><DateUtc dt:dt=""string"">2017-10-05T20:57:56Z</DateUtc></FrequencyChange></FrequencyChanges></Clock>\n",60.06,Nonnative Speaker,-774700513,10/5/2017,13:57:56,8:57:56 PM,female,5,Blockproc,SpeakerList,1,1,3,1,16,0,,-999999,25,461111,2,910,462021,SoundProc,,SecondSenarioList,3,6,26,,,,3,1_3_cas.wav,1_3_pol.wav,
PolitenessJapanese_Perception_ENG,1,1,20,"<?xml version=""1.0""?>\n<Clock xmlns:dt=""urn:schemas-microsoft-com:datatypes""><Description dt:dt=""string"">E-Prime Primary Realtime Clock</Description><StartTime><Timestamp dt:dt=""int"">0</Timestamp><DateUtc dt:dt=""string"">2017-10-05T20:57:56Z</DateUtc></StartTime><FrequencyChanges><FrequencyChange><Frequency dt:dt=""r8"">2597685</Frequency><Timestamp dt:dt=""r8"">1558297906726</Timestamp><Current dt:dt=""r8"">0</Current><DateUtc dt:dt=""string"">2017-10-05T20:57:56Z</DateUtc></FrequencyChange></FrequencyChanges></Clock>\n",60.06,Nonnative Speaker,-774700513,10/5/2017,13:57:56,8:57:56 PM,female,5,Blockproc,SpeakerList,1,1,3,1,17,0,,-999999,35,466972,2,200,467172,SoundProc,,SecondSenarioList,2,6,27,,,,2,1_2_cas.wav,1_2_pol.wav,
PolitenessJapanese_Perception_ENG,1,1,20,"<?xml version=""1.0""?>\n<Clock xmlns:dt=""urn:schemas-microsoft-com:datatypes""><Description dt:dt=""string"">E-Prime Primary Realtime Clock</Description><StartTime><Timestamp dt:dt=""int"">0</Timestamp><DateUtc dt:dt=""string"">2017-10-05T20:57:56Z</DateUtc></StartTime><FrequencyChanges><FrequencyChange><Frequency dt:dt=""r8"">2597685</Frequency><Timestamp dt:dt=""r8"">1558297906726</Timestamp><Current dt:dt=""r8"">0</Current><DateUtc dt:dt=""string"">2017-10-05T20:57:56Z</DateUtc></FrequencyChange></FrequencyChanges></Clock>\n",60.06,Nonnative Speaker,-774700513,10/5/2017,13:57:56,8:57:56 PM,female,5,Blockproc,SpeakerList,1,1,3,1,18,0,,-999999,25,472316,1,648,472964,SoundProc,,SecondSenarioList,1,6,28,,,,1,1_1_pol.wav,1_1_cas.wav,
PolitenessJapanese_Perception_ENG,1,1,20,"<?xml version=""1.0""?>\n<Clock xmlns:dt=""urn:schemas-microsoft-com:datatypes""><Description dt:dt=""string"">E-Prime Primary Realtime Clock</Description><StartTime><Timestamp dt:dt=""int"">0</Timestamp><DateUtc dt:dt=""string"">2017-10-05T20:57:56Z</DateUtc></StartTime><FrequencyChanges><FrequencyChange><Frequency dt:dt=""r8"">2597685</Frequency><Timestamp dt:dt=""r8"">1558297906726</Timestamp><Current dt:dt=""r8"">0</Current><DateUtc dt:dt=""string"">2017-10-05T20:57:56Z</DateUtc></FrequencyChange></FrequencyChanges></Clock>\n",60.06,Nonnative Speaker,-774700513,10/5/2017,13:57:56,8:57:56 PM,female,5,Blockproc,SpeakerList,1,1,3,1,19,0,,-999999,27,477844,1,712,478556,SoundProc,,SecondSenarioList,6,6,29,,,,6,1_6_pol.wav,1_6_cas.wav,
PolitenessJapanese_Perception_ENG,1,1,20,"<?xml version=""1.0""?>\n<Clock xmlns:dt=""urn:schemas-microsoft-com:datatypes""><Description dt:dt=""string"">E-Prime Primary Realtime Clock</Description><StartTime><Timestamp dt:dt=""int"">0</Timestamp><DateUtc dt:dt=""string"">2017-10-05T20:57:56Z</DateUtc></StartTime><FrequencyChanges><FrequencyChange><Frequency dt:dt=""r8"">2597685</Frequency><Timestamp dt:dt=""r8"">1558297906726</Timestamp><Current dt:dt=""r8"">0</Current><DateUtc dt:dt=""string"">2017-10-05T20:57:56Z</DateUtc></FrequencyChange></FrequencyChanges></Clock>\n",60.06,Nonnative Speaker,-774700513,10/5/2017,13:57:56,8:57:56 PM,female,5,Blockproc,SpeakerList,1,1,3,1,20,0,,-999999,21,484238,1,398,484636,SoundProc,,SecondSenarioList,5,6,30,,,,5,1_5_pol.wav,1_5_cas.wav,
PolitenessJapanese_Perception_ENG,1,1,20,"<?xml version=""1.0""?>\n<Clock xmlns:dt=""urn:schemas-microsoft-com:datatypes""><Description dt:dt=""string"">E-Prime Primary Realtime Clock</Description><StartTime><Timestamp dt:dt=""int"">0</Timestamp><DateUtc dt:dt=""string"">2017-10-05T20:57:56Z</DateUtc></StartTime><FrequencyChanges><FrequencyChange><Frequency dt:dt=""r8"">2597685</Frequency><Timestamp dt:dt=""r8"">1558297906726</Timestamp><Current dt:dt=""r8"">0</Current><DateUtc dt:dt=""string"">2017-10-05T20:57:56Z</DateUtc></FrequencyChange></FrequencyChanges></Clock>\n",60.06,Nonnative Speaker,-774700513,10/5/2017,13:57:56,8:57:56 PM,female,6,Blockproc,SpeakerList,8,1,4,13,1,0,,-999999,36,494960,1,372,495332,SenarioProc,2,SenarioList,,,,5,4,31,5,13_5_pol.wav,13_5_cas.wav,13_5_pol.wav
PolitenessJapanese_Perception_ENG,1,1,20,"<?xml version=""1.0""?>\n<Clock xmlns:dt=""urn:schemas-microsoft-com:datatypes""><Description dt:dt=""string"">E-Prime Primary Realtime Clock</Description><StartTime><Timestamp dt:dt=""int"">0</Timestamp><DateUtc dt:dt=""string"">2017-10-05T20:57:56Z</DateUtc></StartTime><FrequencyChanges><FrequencyChange><Frequency dt:dt=""r8"">2597685</Frequency><Timestamp dt:dt=""r8"">1558297906726</Timestamp><Current dt:dt=""r8"">0</Current><DateUtc dt:dt=""string"">2017-10-05T20:57:56Z</DateUtc></FrequencyChange></FrequencyChanges></Clock>\n",60.06,Nonnative Speaker,-774700513,10/5/2017,13:57:56,8:57:56 PM,female,6,Blockproc,SpeakerList,8,1,4,13,2,0,,-999999,31,501071,1,733,501804,SenarioProc,1,SenarioList,,,,3,4,32,3,13_3_cas.wav,13_3_pol.wav,13_3_cas.wav
PolitenessJapanese_Perception_ENG,1,1,20,"<?xml version=""1.0""?>\n<Clock xmlns:dt=""urn:schemas-microsoft-com:datatypes""><Description dt:dt=""string"">E-Prime Primary Realtime Clock</Description><StartTime><Timestamp dt:dt=""int"">0</Timestamp><DateUtc dt:dt=""string"">2017-10-05T20:57:56Z</DateUtc></StartTime><FrequencyChanges><FrequencyChange><Frequency dt:dt=""r8"">2597685</Frequency><Timestamp dt:dt=""r8"">1558297906726</Timestamp><Current dt:dt=""r8"">0</Current><DateUtc dt:dt=""string"">2017-10-05T20:57:56Z</DateUtc></FrequencyChange></FrequencyChanges></Clock>\n",60.06,Nonnative Speaker,-774700513,10/5/2017,13:57:56,8:57:56 PM,female,6,Blockproc,SpeakerList,8,1,4,13,3,0,,-999999,20,506982,2,470,507452,SenarioProc,2,SenarioList,,,,1,4,33,1,13_1_pol.wav,13_1_cas.wav,13_1_pol.wav
PolitenessJapanese_Perception_ENG,1,1,20,"<?xml version=""1.0""?>\n<Clock xmlns:dt=""urn:schemas-microsoft-com:datatypes""><Description dt:dt=""string"">E-Prime Primary Realtime Clock</Description><StartTime><Timestamp dt:dt=""int"">0</Timestamp><DateUtc dt:dt=""string"">2017-10-05T20:57:56Z</DateUtc></StartTime><FrequencyChanges><FrequencyChange><Frequency dt:dt=""r8"">2597685</Frequency><Timestamp dt:dt=""r8"">1558297906726</Timestamp><Current dt:dt=""r8"">0</Current><DateUtc dt:dt=""string"">2017-10-05T20:57:56Z</DateUtc></FrequencyChange></FrequencyChanges></Clock>\n",60.06,Nonnative Speaker,-774700513,10/5/2017,13:57:56,8:57:56 PM,female,6,Blockproc,SpeakerList,8,1,4,13,4,0,,-999999,20,512976,1,948,513924,SenarioProc,2,SenarioList,,,,9,4,34,9,13_9_pol.wav,13_9_cas.wav,13_9_pol.wav
PolitenessJapanese_Perception_ENG,1,1,20,"<?xml version=""1.0""?>\n<Clock xmlns:dt=""urn:schemas-microsoft-com:datatypes""><Description dt:dt=""string"">E-Prime Primary Realtime Clock</Description><StartTime><Timestamp dt:dt=""int"">0</Timestamp><DateUtc dt:dt=""string"">2017-10-05T20:57:56Z</DateUtc></StartTime><FrequencyChanges><FrequencyChange><Frequency dt:dt=""r8"">2597685</Frequency><Timestamp dt:dt=""r8"">1558297906726</Timestamp><Current dt:dt=""r8"">0</Current><DateUtc dt:dt=""string"">2017-10-05T20:57:56Z</DateUtc></FrequencyChange></FrequencyChanges></Clock>\n",60.06,Nonnative Speaker,-774700513,10/5/2017,13:57:56,8:57:56 PM,female,6,Blockproc,SpeakerList,8,1,4,13,5,0,,-999999,33,520069,2,383,520452,SenarioProc,1,SenarioList,,,,8,4,35,8,13_8_cas.wav,13_8_pol.wav,13_8_cas.wav
PolitenessJapanese_Perception_ENG,1,1,20,"<?xml version=""1.0""?>\n<Clock xmlns:dt=""urn:schemas-microsoft-com:datatypes""><Description dt:dt=""string"">E-Prime Primary Realtime Clock</Description><StartTime><Timestamp dt:dt=""int"">0</Timestamp><DateUtc dt:dt=""string"">2017-10-05T20:57:56Z</DateUtc></StartTime><FrequencyChanges><FrequencyChange><Frequency dt:dt=""r8"">2597685</Frequency><Timestamp dt:dt=""r8"">1558297906726</Timestamp><Current dt:dt=""r8"">0</Current><DateUtc dt:dt=""string"">2017-10-05T20:57:56Z</DateUtc></FrequencyChange></FrequencyChanges></Clock>\n",60.06,Nonnative Speaker,-774700513,10/5/2017,13:57:56,8:57:56 PM,female,6,Blockproc,SpeakerList,8,1,4,13,6,0,,-999999,24,525180,1,696,525876,SenarioProc,1,SenarioList,,,,6,4,36,6,13_6_cas.wav,13_6_pol.wav,13_6_cas.wav
PolitenessJapanese_Perception_ENG,1,1,20,"<?xml version=""1.0""?>\n<Clock xmlns:dt=""urn:schemas-microsoft-com:datatypes""><Description dt:dt=""string"">E-Prime Primary Realtime Clock</Description><StartTime><Timestamp dt:dt=""int"">0</Timestamp><DateUtc dt:dt=""string"">2017-10-05T20:57:56Z</DateUtc></StartTime><FrequencyChanges><FrequencyChange><Frequency dt:dt=""r8"">2597685</Frequency><Timestamp dt:dt=""r8"">1558297906726</Timestamp><Current dt:dt=""r8"">0</Current><DateUtc dt:dt=""string"">2017-10-05T20:57:56Z</DateUtc></FrequencyChange></FrequencyChanges></Clock>\n",60.06,Nonnative Speaker,-774700513,10/5/2017,13:57:56,8:57:56 PM,female,6,Blockproc,SpeakerList,8,1,4,13,7,0,,-999999,22,531091,2,625,531716,SenarioProc,2,SenarioList,,,,7,4,37,7,13_7_pol.wav,13_7_cas.wav,13_7_pol.wav
PolitenessJapanese_Perception_ENG,1,1,20,"<?xml version=""1.0""?>\n<Clock xmlns:dt=""urn:schemas-microsoft-com:datatypes""><Description dt:dt=""string"">E-Prime Primary Realtime Clock</Description><StartTime><Timestamp dt:dt=""int"">0</Timestamp><DateUtc dt:dt=""string"">2017-10-05T20:57:56Z</DateUtc></StartTime><FrequencyChanges><FrequencyChange><Frequency dt:dt=""r8"">2597685</Frequency><Timestamp dt:dt=""r8"">1558297906726</Timestamp><Current dt:dt=""r8"">0</Current><DateUtc dt:dt=""string"">2017-10-05T20:57:56Z</DateUtc></FrequencyChange></FrequencyChanges></Clock>\n",60.06,Nonnative Speaker,-774700513,10/5/2017,13:57:56,8:57:56 PM,female,6,Blockproc,SpeakerList,8,1,4,13,8,0,,-999999,28,536968,1,780,537748,SenarioProc,1,SenarioList,,,,2,4,38,2,13_2_cas.wav,13_2_pol.wav,13_2_cas.wav
PolitenessJapanese_Perception_ENG,1,1,20,"<?xml version=""1.0""?>\n<Clock xmlns:dt=""urn:schemas-microsoft-com:datatypes""><Description dt:dt=""string"">E-Prime Primary Realtime Clock</Description><StartTime><Timestamp dt:dt=""int"">0</Timestamp><DateUtc dt:dt=""string"">2017-10-05T20:57:56Z</DateUtc></StartTime><FrequencyChanges><FrequencyChange><Frequency dt:dt=""r8"">2597685</Frequency><Timestamp dt:dt=""r8"">1558297906726</Timestamp><Current dt:dt=""r8"">0</Current><DateUtc dt:dt=""string"">2017-10-05T20:57:56Z</DateUtc></FrequencyChange></FrequencyChanges></Clock>\n",60.06,Nonnative Speaker,-774700513,10/5/2017,13:57:56,8:57:56 PM,female,6,Blockproc,SpeakerList,8,1,4,13,9,0,,-999999,23,544511,2,405,544916,SenarioProc,1,SenarioList,,,,4,4,39,4,13_4_cas.wav,13_4_pol.wav,13_4_cas.wav
PolitenessJapanese_Perception_ENG,1,1,20,"<?xml version=""1.0""?>\n<Clock xmlns:dt=""urn:schemas-microsoft-com:datatypes""><Description dt:dt=""string"">E-Prime Primary Realtime Clock</Description><StartTime><Timestamp dt:dt=""int"">0</Timestamp><DateUtc dt:dt=""string"">2017-10-05T20:57:56Z</DateUtc></StartTime><FrequencyChanges><FrequencyChange><Frequency dt:dt=""r8"">2597685</Frequency><Timestamp dt:dt=""r8"">1558297906726</Timestamp><Current dt:dt=""r8"">0</Current><DateUtc dt:dt=""string"">2017-10-05T20:57:56Z</DateUtc></FrequencyChange></FrequencyChanges></Clock>\n",60.06,Nonnative Speaker,-774700513,10/5/2017,13:57:56,8:57:56 PM,female,6,Blockproc,SpeakerList,8,1,4,13,10,0,,-999999,27,550255,1,589,550844,SenarioProc,1,SenarioList,,,,10,4,40,10,13_10_cas.wav,13_10_pol.wav,13_10_cas.wav
PolitenessJapanese_Perception_ENG,1,1,20,"<?xml version=""1.0""?>\n<Clock xmlns:dt=""urn:schemas-microsoft-com:datatypes""><Description dt:dt=""string"">E-Prime Primary Realtime Clock</Description><StartTime><Timestamp dt:dt=""int"">0</Timestamp><DateUtc dt:dt=""string"">2017-10-05T20:57:56Z</DateUtc></StartTime><FrequencyChanges><FrequencyChange><Frequency dt:dt=""r8"">2597685</Frequency><Timestamp dt:dt=""r8"">1558297906726</Timestamp><Current dt:dt=""r8"">0</Current><DateUtc dt:dt=""string"">2017-10-05T20:57:56Z</DateUtc></FrequencyChange></FrequencyChanges></Clock>\n",60.06,Nonnative Speaker,-774700513,10/5/2017,13:57:56,8:57:56 PM,female,6,Blockproc,SpeakerList,8,1,4,13,11,0,,-999999,20,556932,1,535,557467,SoundProc,,SecondSenarioList,8,8,31,,,,8,13_8_pol.wav,13_8_cas.wav,
PolitenessJapanese_Perception_ENG,1,1,20,"<?xml version=""1.0""?>\n<Clock xmlns:dt=""urn:schemas-microsoft-com:datatypes""><Description dt:dt=""string"">E-Prime Primary Realtime Clock</Description><StartTime><Timestamp dt:dt=""int"">0</Timestamp><DateUtc dt:dt=""string"">2017-10-05T20:57:56Z</DateUtc></StartTime><FrequencyChanges><FrequencyChange><Frequency dt:dt=""r8"">2597685</Frequency><Timestamp dt:dt=""r8"">1558297906726</Timestamp><Current dt:dt=""r8"">0</Current><DateUtc dt:dt=""string"">2017-10-05T20:57:56Z</DateUtc></FrequencyChange></FrequencyChanges></Clock>\n",60.06,Nonnative Speaker,-774700513,10/5/2017,13:57:56,8:57:56 PM,female,6,Blockproc,SpeakerList,8,1,4,13,12,0,,-999999,26,563592,2,395,563987,SoundProc,,SecondSenarioList,5,8,32,,,,5,13_5_cas.wav,13_5_pol.wav,
PolitenessJapanese_Perception_ENG,1,1,20,"<?xml version=""1.0""?>\n<Clock xmlns:dt=""urn:schemas-microsoft-com:datatypes""><Description dt:dt=""string"">E-Prime Primary Realtime Clock</Description><StartTime><Timestamp dt:dt=""int"">0</Timestamp><DateUtc dt:dt=""string"">2017-10-05T20:57:56Z</DateUtc></StartTime><FrequencyChanges><FrequencyChange><Frequency dt:dt=""r8"">2597685</Frequency><Timestamp dt:dt=""r8"">1558297906726</Timestamp><Current dt:dt=""r8"">0</Current><DateUtc dt:dt=""string"">2017-10-05T20:57:56Z</DateUtc></FrequencyChange></FrequencyChanges></Clock>\n",60.06,Nonnative Speaker,-774700513,10/5/2017,13:57:56,8:57:56 PM,female,6,Blockproc,SpeakerList,8,1,4,13,13,0,,-999999,28,568704,1,723,569427,SoundProc,,SecondSenarioList,6,8,33,,,,6,13_6_pol.wav,13_6_cas.wav,
PolitenessJapanese_Perception_ENG,1,1,20,"<?xml version=""1.0""?>\n<Clock xmlns:dt=""urn:schemas-microsoft-com:datatypes""><Description dt:dt=""string"">E-Prime Primary Realtime Clock</Description><StartTime><Timestamp dt:dt=""int"">0</Timestamp><DateUtc dt:dt=""string"">2017-10-05T20:57:56Z</DateUtc></StartTime><FrequencyChanges><FrequencyChange><Frequency dt:dt=""r8"">2597685</Frequency><Timestamp dt:dt=""r8"">1558297906726</Timestamp><Current dt:dt=""r8"">0</Current><DateUtc dt:dt=""string"">2017-10-05T20:57:56Z</DateUtc></FrequencyChange></FrequencyChanges></Clock>\n",60.06,Nonnative Speaker,-774700513,10/5/2017,13:57:56,8:57:56 PM,female,6,Blockproc,SpeakerList,8,1,4,13,14,0,,-999999,24,574714,2,601,575315,SoundProc,,SecondSenarioList,10,8,34,,,,10,13_10_pol.wav,13_10_cas.wav,
PolitenessJapanese_Perception_ENG,1,1,20,"<?xml version=""1.0""?>\n<Clock xmlns:dt=""urn:schemas-microsoft-com:datatypes""><Description dt:dt=""string"">E-Prime Primary Realtime Clock</Description><StartTime><Timestamp dt:dt=""int"">0</Timestamp><DateUtc dt:dt=""string"">2017-10-05T20:57:56Z</DateUtc></StartTime><FrequencyChanges><FrequencyChange><Frequency dt:dt=""r8"">2597685</Frequency><Timestamp dt:dt=""r8"">1558297906726</Timestamp><Current dt:dt=""r8"">0</Current><DateUtc dt:dt=""string"">2017-10-05T20:57:56Z</DateUtc></FrequencyChange></FrequencyChanges></Clock>\n",60.06,Nonnative Speaker,-774700513,10/5/2017,13:57:56,8:57:56 PM,female,6,Blockproc,SpeakerList,8,1,4,13,15,0,,-999999,28,580508,2,175,580683,SoundProc,,SecondSenarioList,7,8,35,,,,7,13_7_cas.wav,13_7_pol.wav,
PolitenessJapanese_Perception_ENG,1,1,20,"<?xml version=""1.0""?>\n<Clock xmlns:dt=""urn:schemas-microsoft-com:datatypes""><Description dt:dt=""string"">E-Prime Primary Realtime Clock</Description><StartTime><Timestamp dt:dt=""int"">0</Timestamp><DateUtc dt:dt=""string"">2017-10-05T20:57:56Z</DateUtc></StartTime><FrequencyChanges><FrequencyChange><Frequency dt:dt=""r8"">2597685</Frequency><Timestamp dt:dt=""r8"">1558297906726</Timestamp><Current dt:dt=""r8"">0</Current><DateUtc dt:dt=""string"">2017-10-05T20:57:56Z</DateUtc></FrequencyChange></FrequencyChanges></Clock>\n",60.06,Nonnative Speaker,-774700513,10/5/2017,13:57:56,8:57:56 PM,female,6,Blockproc,SpeakerList,8,1,4,13,16,0,,-999999,27,585820,2,647,586467,SoundProc,,SecondSenarioList,1,8,36,,,,1,13_1_cas.wav,13_1_pol.wav,
PolitenessJapanese_Perception_ENG,1,1,20,"<?xml version=""1.0""?>\n<Clock xmlns:dt=""urn:schemas-microsoft-com:datatypes""><Description dt:dt=""string"">E-Prime Primary Realtime Clock</Description><StartTime><Timestamp dt:dt=""int"">0</Timestamp><DateUtc dt:dt=""string"">2017-10-05T20:57:56Z</DateUtc></StartTime><FrequencyChanges><FrequencyChange><Frequency dt:dt=""r8"">2597685</Frequency><Timestamp dt:dt=""r8"">1558297906726</Timestamp><Current dt:dt=""r8"">0</Current><DateUtc dt:dt=""string"">2017-10-05T20:57:56Z</DateUtc></FrequencyChange></FrequencyChanges></Clock>\n",60.06,Nonnative Speaker,-774700513,10/5/2017,13:57:56,8:57:56 PM,female,6,Blockproc,SpeakerList,8,1,4,13,17,0,,-999999,27,592230,1,789,593019,SoundProc,,SecondSenarioList,3,8,37,,,,3,13_3_pol.wav,13_3_cas.wav,
PolitenessJapanese_Perception_ENG,1,1,20,"<?xml version=""1.0""?>\n<Clock xmlns:dt=""urn:schemas-microsoft-com:datatypes""><Description dt:dt=""string"">E-Prime Primary Realtime Clock</Description><StartTime><Timestamp dt:dt=""int"">0</Timestamp><DateUtc dt:dt=""string"">2017-10-05T20:57:56Z</DateUtc></StartTime><FrequencyChanges><FrequencyChange><Frequency dt:dt=""r8"">2597685</Frequency><Timestamp dt:dt=""r8"">1558297906726</Timestamp><Current dt:dt=""r8"">0</Current><DateUtc dt:dt=""string"">2017-10-05T20:57:56Z</DateUtc></FrequencyChange></FrequencyChanges></Clock>\n",60.06,Nonnative Speaker,-774700513,10/5/2017,13:57:56,8:57:56 PM,female,6,Blockproc,SpeakerList,8,1,4,13,18,0,,-999999,24,598241,2,666,598907,SoundProc,,SecondSenarioList,2,8,38,,,,2,13_2_pol.wav,13_2_cas.wav,
PolitenessJapanese_Perception_ENG,1,1,20,"<?xml version=""1.0""?>\n<Clock xmlns:dt=""urn:schemas-microsoft-com:datatypes""><Description dt:dt=""string"">E-Prime Primary Realtime Clock</Description><StartTime><Timestamp dt:dt=""int"">0</Timestamp><DateUtc dt:dt=""string"">2017-10-05T20:57:56Z</DateUtc></StartTime><FrequencyChanges><FrequencyChange><Frequency dt:dt=""r8"">2597685</Frequency><Timestamp dt:dt=""r8"">1558297906726</Timestamp><Current dt:dt=""r8"">0</Current><DateUtc dt:dt=""string"">2017-10-05T20:57:56Z</DateUtc></FrequencyChange></FrequencyChanges></Clock>\n",60.06,Nonnative Speaker,-774700513,10/5/2017,13:57:56,8:57:56 PM,female,6,Blockproc,SpeakerList,8,1,4,13,19,0,,-999999,24,605667,1,352,606019,SoundProc,,SecondSenarioList,4,8,39,,,,4,13_4_pol.wav,13_4_cas.wav,
PolitenessJapanese_Perception_ENG,1,1,20,"<?xml version=""1.0""?>\n<Clock xmlns:dt=""urn:schemas-microsoft-com:datatypes""><Description dt:dt=""string"">E-Prime Primary Realtime Clock</Description><StartTime><Timestamp dt:dt=""int"">0</Timestamp><DateUtc dt:dt=""string"">2017-10-05T20:57:56Z</DateUtc></StartTime><FrequencyChanges><FrequencyChange><Frequency dt:dt=""r8"">2597685</Frequency><Timestamp dt:dt=""r8"">1558297906726</Timestamp><Current dt:dt=""r8"">0</Current><DateUtc dt:dt=""string"">2017-10-05T20:57:56Z</DateUtc></FrequencyChange></FrequencyChanges></Clock>\n",60.06,Nonnative Speaker,-774700513,10/5/2017,13:57:56,8:57:56 PM,female,6,Blockproc,SpeakerList,8,1,4,13,20,0,,-999999,23,611528,1,531,612059,SoundProc,,SecondSenarioList,9,8,40,,,,9,13_9_cas.wav,13_9_pol.wav,
PolitenessJapanese_Perception_ENG,1,1,20,"<?xml version=""1.0""?>\n<Clock xmlns:dt=""urn:schemas-microsoft-com:datatypes""><Description dt:dt=""string"">E-Prime Primary Realtime Clock</Description><StartTime><Timestamp dt:dt=""int"">0</Timestamp><DateUtc dt:dt=""string"">2017-10-05T20:57:56Z</DateUtc></StartTime><FrequencyChanges><FrequencyChange><Frequency dt:dt=""r8"">2597685</Frequency><Timestamp dt:dt=""r8"">1558297906726</Timestamp><Current dt:dt=""r8"">0</Current><DateUtc dt:dt=""string"">2017-10-05T20:57:56Z</DateUtc></FrequencyChange></FrequencyChanges></Clock>\n",60.06,Nonnative Speaker,-774700513,10/5/2017,13:57:56,8:57:56 PM,female,7,Blockproc,SpeakerList,7,1,5,12,1,0,,-999999,28,620818,1,449,621267,SenarioProc,2,SenarioList,,,,10,5,41,10,12_10_pol.wav,12_10_cas.wav,12_10_pol.wav
PolitenessJapanese_Perception_ENG,1,1,20,"<?xml version=""1.0""?>\n<Clock xmlns:dt=""urn:schemas-microsoft-com:datatypes""><Description dt:dt=""string"">E-Prime Primary Realtime Clock</Description><StartTime><Timestamp dt:dt=""int"">0</Timestamp><DateUtc dt:dt=""string"">2017-10-05T20:57:56Z</DateUtc></StartTime><FrequencyChanges><FrequencyChange><Frequency dt:dt=""r8"">2597685</Frequency><Timestamp dt:dt=""r8"">1558297906726</Timestamp><Current dt:dt=""r8"">0</Current><DateUtc dt:dt=""string"">2017-10-05T20:57:56Z</DateUtc></FrequencyChange></FrequencyChanges></Clock>\n",60.06,Nonnative Speaker,-774700513,10/5/2017,13:57:56,8:57:56 PM,female,7,Blockproc,SpeakerList,7,1,5,12,2,0,,-999999,20,625930,2,937,626867,SenarioProc,1,SenarioList,,,,6,5,42,6,12_6_cas.wav,12_6_pol.wav,12_6_cas.wav
PolitenessJapanese_Perception_ENG,1,1,20,"<?xml version=""1.0""?>\n<Clock xmlns:dt=""urn:schemas-microsoft-com:datatypes""><Description dt:dt=""string"">E-Prime Primary Realtime Clock</Description><StartTime><Timestamp dt:dt=""int"">0</Timestamp><DateUtc dt:dt=""string"">2017-10-05T20:57:56Z</DateUtc></StartTime><FrequencyChanges><FrequencyChange><Frequency dt:dt=""r8"">2597685</Frequency><Timestamp dt:dt=""r8"">1558297906726</Timestamp><Current dt:dt=""r8"">0</Current><DateUtc dt:dt=""string"">2017-10-05T20:57:56Z</DateUtc></FrequencyChange></FrequencyChanges></Clock>\n",60.06,Nonnative Speaker,-774700513,10/5/2017,13:57:56,8:57:56 PM,female,7,Blockproc,SpeakerList,7,1,5,12,3,0,,-999999,26,632823,2,372,633195,SenarioProc,2,SenarioList,,,,8,5,43,8,12_8_pol.wav,12_8_cas.wav,12_8_pol.wav
PolitenessJapanese_Perception_ENG,1,1,20,"<?xml version=""1.0""?>\n<Clock xmlns:dt=""urn:schemas-microsoft-com:datatypes""><Description dt:dt=""string"">E-Prime Primary Realtime Clock</Description><StartTime><Timestamp dt:dt=""int"">0</Timestamp><DateUtc dt:dt=""string"">2017-10-05T20:57:56Z</DateUtc></StartTime><FrequencyChanges><FrequencyChange><Frequency dt:dt=""r8"">2597685</Frequency><Timestamp dt:dt=""r8"">1558297906726</Timestamp><Current dt:dt=""r8"">0</Current><DateUtc dt:dt=""string"">2017-10-05T20:57:56Z</DateUtc></FrequencyChange></FrequencyChanges></Clock>\n",60.06,Nonnative Speaker,-774700513,10/5/2017,13:57:56,8:57:56 PM,female,7,Blockproc,SpeakerList,7,1,5,12,4,0,,-999999,31,638517,1,846,639363,SenarioProc,1,SenarioList,,,,9,5,44,9,12_9_cas.wav,12_9_pol.wav,12_9_cas.wav
PolitenessJapanese_Perception_ENG,1,1,20,"<?xml version=""1.0""?>\n<Clock xmlns:dt=""urn:schemas-microsoft-com:datatypes""><Description dt:dt=""string"">E-Prime Primary Realtime Clock</Description><StartTime><Timestamp dt:dt=""int"">0</Timestamp><DateUtc dt:dt=""string"">2017-10-05T20:57:56Z</DateUtc></StartTime><FrequencyChanges><FrequencyChange><Frequency dt:dt=""r8"">2597685</Frequency><Timestamp dt:dt=""r8"">1558297906726</Timestamp><Current dt:dt=""r8"">0</Current><DateUtc dt:dt=""string"">2017-10-05T20:57:56Z</DateUtc></FrequencyChange></FrequencyChanges></Clock>\n",60.06,Nonnative Speaker,-774700513,10/5/2017,13:57:56,8:57:56 PM,female,7,Blockproc,SpeakerList,7,1,5,12,5,0,,-999999,19,644895,1,899,645794,SenarioProc,1,SenarioList,,,,3,5,45,3,12_3_cas.wav,12_3_pol.wav,12_3_cas.wav
PolitenessJapanese_Perception_ENG,1,1,20,"<?xml version=""1.0""?>\n<Clock xmlns:dt=""urn:schemas-microsoft-com:datatypes""><Description dt:dt=""string"">E-Prime Primary Realtime Clock</Description><StartTime><Timestamp dt:dt=""int"">0</Timestamp><DateUtc dt:dt=""string"">2017-10-05T20:57:56Z</DateUtc></StartTime><FrequencyChanges><FrequencyChange><Frequency dt:dt=""r8"">2597685</Frequency><Timestamp dt:dt=""r8"">1558297906726</Timestamp><Current dt:dt=""r8"">0</Current><DateUtc dt:dt=""string"">2017-10-05T20:57:56Z</DateUtc></FrequencyChange></FrequencyChanges></Clock>\n",60.06,Nonnative Speaker,-774700513,10/5/2017,13:57:56,8:57:56 PM,female,7,Blockproc,SpeakerList,7,1,5,12,6,0,,-999999,33,650872,2,314,651186,SenarioProc,1,SenarioList,,,,2,5,46,2,12_2_cas.wav,12_2_pol.wav,12_2_cas.wav
PolitenessJapanese_Perception_ENG,1,1,20,"<?xml version=""1.0""?>\n<Clock xmlns:dt=""urn:schemas-microsoft-com:datatypes""><Description dt:dt=""string"">E-Prime Primary Realtime Clock</Description><StartTime><Timestamp dt:dt=""int"">0</Timestamp><DateUtc dt:dt=""string"">2017-10-05T20:57:56Z</DateUtc></StartTime><FrequencyChanges><FrequencyChange><Frequency dt:dt=""r8"">2597685</Frequency><Timestamp dt:dt=""r8"">1558297906726</Timestamp><Current dt:dt=""r8"">0</Current><DateUtc dt:dt=""string"">2017-10-05T20:57:56Z</DateUtc></FrequencyChange></FrequencyChanges></Clock>\n",60.06,Nonnative Speaker,-774700513,10/5/2017,13:57:56,8:57:56 PM,female,7,Blockproc,SpeakerList,7,1,5,12,7,0,,-999999,33,657465,1,425,657890,SenarioProc,2,SenarioList,,,,4,5,47,4,12_4_pol.wav,12_4_cas.wav,12_4_pol.wav
PolitenessJapanese_Perception_ENG,1,1,20,"<?xml version=""1.0""?>\n<Clock xmlns:dt=""urn:schemas-microsoft-com:datatypes""><Description dt:dt=""string"">E-Prime Primary Realtime Clock</Description><StartTime><Timestamp dt:dt=""int"">0</Timestamp><DateUtc dt:dt=""string"">2017-10-05T20:57:56Z</DateUtc></StartTime><FrequencyChanges><FrequencyChange><Frequency dt:dt=""r8"">2597685</Frequency><Timestamp dt:dt=""r8"">1558297906726</Timestamp><Current dt:dt=""r8"">0</Current><DateUtc dt:dt=""string"">2017-10-05T20:57:56Z</DateUtc></FrequencyChange></FrequencyChanges></Clock>\n",60.06,Nonnative Speaker,-774700513,10/5/2017,13:57:56,8:57:56 PM,female,7,Blockproc,SpeakerList,7,1,5,12,8,0,,-999999,25,662993,2,513,663506,SenarioProc,1,SenarioList,,,,1,5,48,1,12_1_cas.wav,12_1_pol.wav,12_1_cas.wav
PolitenessJapanese_Perception_ENG,1,1,20,"<?xml version=""1.0""?>\n<Clock xmlns:dt=""urn:schemas-microsoft-com:datatypes""><Description dt:dt=""string"">E-Prime Primary Realtime Clock</Description><StartTime><Timestamp dt:dt=""int"">0</Timestamp><DateUtc dt:dt=""string"">2017-10-05T20:57:56Z</DateUtc></StartTime><FrequencyChanges><FrequencyChange><Frequency dt:dt=""r8"">2597685</Frequency><Timestamp dt:dt=""r8"">1558297906726</Timestamp><Current dt:dt=""r8"">0</Current><DateUtc dt:dt=""string"">2017-10-05T20:57:56Z</DateUtc></FrequencyChange></FrequencyChanges></Clock>\n",60.06,Nonnative Speaker,-774700513,10/5/2017,13:57:56,8:57:56 PM,female,7,Blockproc,SpeakerList,7,1,5,12,9,0,,-999999,32,669187,1,631,669818,SenarioProc,2,SenarioList,,,,5,5,49,5,12_5_pol.wav,12_5_cas.wav,12_5_pol.wav
PolitenessJapanese_Perception_ENG,1,1,20,"<?xml version=""1.0""?>\n<Clock xmlns:dt=""urn:schemas-microsoft-com:datatypes""><Description dt:dt=""string"">E-Prime Primary Realtime Clock</Description><StartTime><Timestamp dt:dt=""int"">0</Timestamp><DateUtc dt:dt=""string"">2017-10-05T20:57:56Z</DateUtc></StartTime><FrequencyChanges><FrequencyChange><Frequency dt:dt=""r8"">2597685</Frequency><Timestamp dt:dt=""r8"">1558297906726</Timestamp><Current dt:dt=""r8"">0</Current><DateUtc dt:dt=""string"">2017-10-05T20:57:56Z</DateUtc></FrequencyChange></FrequencyChanges></Clock>\n",60.06,Nonnative Speaker,-774700513,10/5/2017,13:57:56,8:57:56 PM,female,7,Blockproc,SpeakerList,7,1,5,12,10,0,,-999999,26,674748,1,886,675634,SenarioProc,1,SenarioList,,,,7,5,50,7,12_7_cas.wav,12_7_pol.wav,12_7_cas.wav
PolitenessJapanese_Perception_ENG,1,1,20,"<?xml version=""1.0""?>\n<Clock xmlns:dt=""urn:schemas-microsoft-com:datatypes""><Description dt:dt=""string"">E-Prime Primary Realtime Clock</Description><StartTime><Timestamp dt:dt=""int"">0</Timestamp><DateUtc dt:dt=""string"">2017-10-05T20:57:56Z</DateUtc></StartTime><FrequencyChanges><FrequencyChange><Frequency dt:dt=""r8"">2597685</Frequency><Timestamp dt:dt=""r8"">1558297906726</Timestamp><Current dt:dt=""r8"">0</Current><DateUtc dt:dt=""string"">2017-10-05T20:57:56Z</DateUtc></FrequencyChange></FrequencyChanges></Clock>\n",60.06,Nonnative Speaker,-774700513,10/5/2017,13:57:56,8:57:56 PM,female,7,Blockproc,SpeakerList,7,1,5,12,11,0,,-999999,30,680542,2,724,681266,SoundProc,,SecondSenarioList,7,10,41,,,,7,12_7_pol.wav,12_7_cas.wav,
PolitenessJapanese_Perception_ENG,1,1,20,"<?xml version=""1.0""?>\n<Clock xmlns:dt=""urn:schemas-microsoft-com:datatypes""><Description dt:dt=""string"">E-Prime Primary Realtime Clock</Description><StartTime><Timestamp dt:dt=""int"">0</Timestamp><DateUtc dt:dt=""string"">2017-10-05T20:57:56Z</DateUtc></StartTime><FrequencyChanges><FrequencyChange><Frequency dt:dt=""r8"">2597685</Frequency><Timestamp dt:dt=""r8"">1558297906726</Timestamp><Current dt:dt=""r8"">0</Current><DateUtc dt:dt=""string"">2017-10-05T20:57:56Z</DateUtc></FrequencyChange></FrequencyChanges></Clock>\n",60.06,Nonnative Speaker,-774700513,10/5/2017,13:57:56,8:57:56 PM,female,7,Blockproc,SpeakerList,7,1,5,12,12,0,,-999999,23,686336,1,362,686698,SoundProc,,SecondSenarioList,1,10,42,,,,1,12_1_pol.wav,12_1_cas.wav,
PolitenessJapanese_Perception_ENG,1,1,20,"<?xml version=""1.0""?>\n<Clock xmlns:dt=""urn:schemas-microsoft-com:datatypes""><Description dt:dt=""string"">E-Prime Primary Realtime Clock</Description><StartTime><Timestamp dt:dt=""int"">0</Timestamp><DateUtc dt:dt=""string"">2017-10-05T20:57:56Z</DateUtc></StartTime><FrequencyChanges><FrequencyChange><Frequency dt:dt=""r8"">2597685</Frequency><Timestamp dt:dt=""r8"">1558297906726</Timestamp><Current dt:dt=""r8"">0</Current><DateUtc dt:dt=""string"">2017-10-05T20:57:56Z</DateUtc></FrequencyChange></FrequencyChanges></Clock>\n",60.06,Nonnative Speaker,-774700513,10/5/2017,13:57:56,8:57:56 PM,female,7,Blockproc,SpeakerList,7,1,5,12,13,0,,-999999,23,692014,1,260,692274,SoundProc,,SecondSenarioList,9,10,43,,,,9,12_9_pol.wav,12_9_cas.wav,
PolitenessJapanese_Perception_ENG,1,1,20,"<?xml version=""1.0""?>\n<Clock xmlns:dt=""urn:schemas-microsoft-com:datatypes""><Description dt:dt=""string"">E-Prime Primary Realtime Clock</Description><StartTime><Timestamp dt:dt=""int"">0</Timestamp><DateUtc dt:dt=""string"">2017-10-05T20:57:56Z</DateUtc></StartTime><FrequencyChanges><FrequencyChange><Frequency dt:dt=""r8"">2597685</Frequency><Timestamp dt:dt=""r8"">1558297906726</Timestamp><Current dt:dt=""r8"">0</Current><DateUtc dt:dt=""string"">2017-10-05T20:57:56Z</DateUtc></FrequencyChange></FrequencyChanges></Clock>\n",60.06,Nonnative Speaker,-774700513,10/5/2017,13:57:56,8:57:56 PM,female,7,Blockproc,SpeakerList,7,1,5,12,14,0,,-999999,34,697958,1,340,698298,SoundProc,,SecondSenarioList,5,10,44,,,,5,12_5_cas.wav,12_5_pol.wav,
PolitenessJapanese_Perception_ENG,1,1,20,"<?xml version=""1.0""?>\n<Clock xmlns:dt=""urn:schemas-microsoft-com:datatypes""><Description dt:dt=""string"">E-Prime Primary Realtime Clock</Description><StartTime><Timestamp dt:dt=""int"">0</Timestamp><DateUtc dt:dt=""string"">2017-10-05T20:57:56Z</DateUtc></StartTime><FrequencyChanges><FrequencyChange><Frequency dt:dt=""r8"">2597685</Frequency><Timestamp dt:dt=""r8"">1558297906726</Timestamp><Current dt:dt=""r8"">0</Current><DateUtc dt:dt=""string"">2017-10-05T20:57:56Z</DateUtc></FrequencyChange></FrequencyChanges></Clock>\n",60.06,Nonnative Speaker,-774700513,10/5/2017,13:57:56,8:57:56 PM,female,7,Blockproc,SpeakerList,7,1,5,12,15,0,,-999999,24,702936,1,370,703306,SoundProc,,SecondSenarioList,6,10,45,,,,6,12_6_pol.wav,12_6_cas.wav,
PolitenessJapanese_Perception_ENG,1,1,20,"<?xml version=""1.0""?>\n<Clock xmlns:dt=""urn:schemas-microsoft-com:datatypes""><Description dt:dt=""string"">E-Prime Primary Realtime Clock</Description><StartTime><Timestamp dt:dt=""int"">0</Timestamp><DateUtc dt:dt=""string"">2017-10-05T20:57:56Z</DateUtc></StartTime><FrequencyChanges><FrequencyChange><Frequency dt:dt=""r8"">2597685</Frequency><Timestamp dt:dt=""r8"">1558297906726</Timestamp><Current dt:dt=""r8"">0</Current><DateUtc dt:dt=""string"">2017-10-05T20:57:56Z</DateUtc></FrequencyChange></FrequencyChanges></Clock>\n",60.06,Nonnative Speaker,-774700513,10/5/2017,13:57:56,8:57:56 PM,female,7,Blockproc,SpeakerList,7,1,5,12,16,0,,-999999,21,709597,1,749,710346,SoundProc,,SecondSenarioList,4,10,46,,,,4,12_4_cas.wav,12_4_pol.wav,
PolitenessJapanese_Perception_ENG,1,1,20,"<?xml version=""1.0""?>\n<Clock xmlns:dt=""urn:schemas-microsoft-com:datatypes""><Description dt:dt=""string"">E-Prime Primary Realtime Clock</Description><StartTime><Timestamp dt:dt=""int"">0</Timestamp><DateUtc dt:dt=""string"">2017-10-05T20:57:56Z</DateUtc></StartTime><FrequencyChanges><FrequencyChange><Frequency dt:dt=""r8"">2597685</Frequency><Timestamp dt:dt=""r8"">1558297906726</Timestamp><Current dt:dt=""r8"">0</Current><DateUtc dt:dt=""string"">2017-10-05T20:57:56Z</DateUtc></FrequencyChange></FrequencyChanges></Clock>\n",60.06,Nonnative Speaker,-774700513,10/5/2017,13:57:56,8:57:56 PM,female,7,Blockproc,SpeakerList,7,1,5,12,17,0,,-999999,29,715507,1,879,716386,SoundProc,,SecondSenarioList,10,10,47,,,,10,12_10_cas.wav,12_10_pol.wav,
PolitenessJapanese_Perception_ENG,1,1,20,"<?xml version=""1.0""?>\n<Clock xmlns:dt=""urn:schemas-microsoft-com:datatypes""><Description dt:dt=""string"">E-Prime Primary Realtime Clock</Description><StartTime><Timestamp dt:dt=""int"">0</Timestamp><DateUtc dt:dt=""string"">2017-10-05T20:57:56Z</DateUtc></StartTime><FrequencyChanges><FrequencyChange><Frequency dt:dt=""r8"">2597685</Frequency><Timestamp dt:dt=""r8"">1558297906726</Timestamp><Current dt:dt=""r8"">0</Current><DateUtc dt:dt=""string"">2017-10-05T20:57:56Z</DateUtc></FrequencyChange></FrequencyChanges></Clock>\n",60.06,Nonnative Speaker,-774700513,10/5/2017,13:57:56,8:57:56 PM,female,7,Blockproc,SpeakerList,7,1,5,12,18,0,,-999999,19,722334,2,236,722570,SoundProc,,SecondSenarioList,8,10,48,,,,8,12_8_cas.wav,12_8_pol.wav,
PolitenessJapanese_Perception_ENG,1,1,20,"<?xml version=""1.0""?>\n<Clock xmlns:dt=""urn:schemas-microsoft-com:datatypes""><Description dt:dt=""string"">E-Prime Primary Realtime Clock</Description><StartTime><Timestamp dt:dt=""int"">0</Timestamp><DateUtc dt:dt=""string"">2017-10-05T20:57:56Z</DateUtc></StartTime><FrequencyChanges><FrequencyChange><Frequency dt:dt=""r8"">2597685</Frequency><Timestamp dt:dt=""r8"">1558297906726</Timestamp><Current dt:dt=""r8"">0</Current><DateUtc dt:dt=""string"">2017-10-05T20:57:56Z</DateUtc></FrequencyChange></FrequencyChanges></Clock>\n",60.06,Nonnative Speaker,-774700513,10/5/2017,13:57:56,8:57:56 PM,female,7,Blockproc,SpeakerList,7,1,5,12,19,0,,-999999,34,728078,2,412,728490,SoundProc,,SecondSenarioList,3,10,49,,,,3,12_3_pol.wav,12_3_cas.wav,
PolitenessJapanese_Perception_ENG,1,1,20,"<?xml version=""1.0""?>\n<Clock xmlns:dt=""urn:schemas-microsoft-com:datatypes""><Description dt:dt=""string"">E-Prime Primary Realtime Clock</Description><StartTime><Timestamp dt:dt=""int"">0</Timestamp><DateUtc dt:dt=""string"">2017-10-05T20:57:56Z</DateUtc></StartTime><FrequencyChanges><FrequencyChange><Frequency dt:dt=""r8"">2597685</Frequency><Timestamp dt:dt=""r8"">1558297906726</Timestamp><Current dt:dt=""r8"">0</Current><DateUtc dt:dt=""string"">2017-10-05T20:57:56Z</DateUtc></FrequencyChange></FrequencyChanges></Clock>\n",60.06,Nonnative Speaker,-774700513,10/5/2017,13:57:56,8:57:56 PM,female,7,Blockproc,SpeakerList,7,1,5,12,20,0,,-999999,30,733489,1,720,734209,SoundProc,,SecondSenarioList,2,10,50,,,,2,12_2_pol.wav,12_2_cas.wav,
PolitenessJapanese_Perception_ENG,1,1,20,"<?xml version=""1.0""?>\n<Clock xmlns:dt=""urn:schemas-microsoft-com:datatypes""><Description dt:dt=""string"">E-Prime Primary Realtime Clock</Description><StartTime><Timestamp dt:dt=""int"">0</Timestamp><DateUtc dt:dt=""string"">2017-10-05T20:57:56Z</DateUtc></StartTime><FrequencyChanges><FrequencyChange><Frequency dt:dt=""r8"">2597685</Frequency><Timestamp dt:dt=""r8"">1558297906726</Timestamp><Current dt:dt=""r8"">0</Current><DateUtc dt:dt=""string"">2017-10-05T20:57:56Z</DateUtc></FrequencyChange></FrequencyChanges></Clock>\n",60.06,Nonnative Speaker,-774700513,10/5/2017,13:57:56,8:57:56 PM,female,8,Blockproc,SpeakerList,5,1,6,10,1,0,,-999999,30,742164,2,693,742857,SenarioProc,1,SenarioList,,,,3,6,51,3,10_3_cas.wav,10_3_pol.wav,10_3_cas.wav
PolitenessJapanese_Perception_ENG,1,1,20,"<?xml version=""1.0""?>\n<Clock xmlns:dt=""urn:schemas-microsoft-com:datatypes""><Description dt:dt=""string"">E-Prime Primary Realtime Clock</Description><StartTime><Timestamp dt:dt=""int"">0</Timestamp><DateUtc dt:dt=""string"">2017-10-05T20:57:56Z</DateUtc></StartTime><FrequencyChanges><FrequencyChange><Frequency dt:dt=""r8"">2597685</Frequency><Timestamp dt:dt=""r8"">1558297906726</Timestamp><Current dt:dt=""r8"">0</Current><DateUtc dt:dt=""string"">2017-10-05T20:57:56Z</DateUtc></FrequencyChange></FrequencyChanges></Clock>\n",60.06,Nonnative Speaker,-774700513,10/5/2017,13:57:56,8:57:56 PM,female,8,Blockproc,SpeakerList,5,1,6,10,2,0,,-999999,21,748108,1,597,748705,SenarioProc,1,SenarioList,,,,9,6,52,9,10_9_cas.wav,10_9_pol.wav,10_9_cas.wav
PolitenessJapanese_Perception_ENG,1,1,20,"<?xml version=""1.0""?>\n<Clock xmlns:dt=""urn:schemas-microsoft-com:datatypes""><Description dt:dt=""string"">E-Prime Primary Realtime Clock</Description><StartTime><Timestamp dt:dt=""int"">0</Timestamp><DateUtc dt:dt=""string"">2017-10-05T20:57:56Z</DateUtc></StartTime><FrequencyChanges><FrequencyChange><Frequency dt:dt=""r8"">2597685</Frequency><Timestamp dt:dt=""r8"">1558297906726</Timestamp><Current dt:dt=""r8"">0</Current><DateUtc dt:dt=""string"">2017-10-05T20:57:56Z</DateUtc></FrequencyChange></FrequencyChanges></Clock>\n",60.06,Nonnative Speaker,-774700513,10/5/2017,13:57:56,8:57:56 PM,female,8,Blockproc,SpeakerList,5,1,6,10,3,0,,-999999,26,753802,1,495,754297,SenarioProc,2,SenarioList,,,,10,6,53,10,10_10_pol.wav,10_10_cas.wav,10_10_pol.wav
PolitenessJapanese_Perception_ENG,1,1,20,"<?xml version=""1.0""?>\n<Clock xmlns:dt=""urn:schemas-microsoft-com:datatypes""><Description dt:dt=""string"">E-Prime Primary Realtime Clock</Description><StartTime><Timestamp dt:dt=""int"">0</Timestamp><DateUtc dt:dt=""string"">2017-10-05T20:57:56Z</DateUtc></StartTime><FrequencyChanges><FrequencyChange><Frequency dt:dt=""r8"">2597685</Frequency><Timestamp dt:dt=""r8"">1558297906726</Timestamp><Current dt:dt=""r8"">0</Current><DateUtc dt:dt=""string"">2017-10-05T20:57:56Z</DateUtc></FrequencyChange></FrequencyChanges></Clock>\n",60.06,Nonnative Speaker,-774700513,10/5/2017,13:57:56,8:57:56 PM,female,8,Blockproc,SpeakerList,5,1,6,10,4,0,,-999999,22,760046,1,723,760769,SenarioProc,1,SenarioList,,,,5,6,54,5,10_5_cas.wav,10_5_pol.wav,10_5_cas.wav
PolitenessJapanese_Perception_ENG,1,1,20,"<?xml version=""1.0""?>\n<Clock xmlns:dt=""urn:schemas-microsoft-com:datatypes""><Description dt:dt=""string"">E-Prime Primary Realtime Clock</Description><StartTime><Timestamp dt:dt=""int"">0</Timestamp><DateUtc dt:dt=""string"">2017-10-05T20:57:56Z</DateUtc></StartTime><FrequencyChanges><FrequencyChange><Frequency dt:dt=""r8"">2597685</Frequency><Timestamp dt:dt=""r8"">1558297906726</Timestamp><Current dt:dt=""r8"">0</Current><DateUtc dt:dt=""string"">2017-10-05T20:57:56Z</DateUtc></FrequencyChange></FrequencyChanges></Clock>\n",60.06,Nonnative Speaker,-774700513,10/5/2017,13:57:56,8:57:56 PM,female,8,Blockproc,SpeakerList,5,1,6,10,5,0,,-999999,22,765541,1,1076,766617,SenarioProc,1,SenarioList,,,,6,6,55,6,10_6_cas.wav,10_6_pol.wav,10_6_cas.wav
PolitenessJapanese_Perception_ENG,1,1,20,"<?xml version=""1.0""?>\n<Clock xmlns:dt=""urn:schemas-microsoft-com:datatypes""><Description dt:dt=""string"">E-Prime Primary Realtime Clock</Description><StartTime><Timestamp dt:dt=""int"">0</Timestamp><DateUtc dt:dt=""string"">2017-10-05T20:57:56Z</DateUtc></StartTime><FrequencyChanges><FrequencyChange><Frequency dt:dt=""r8"">2597685</Frequency><Timestamp dt:dt=""r8"">1558297906726</Timestamp><Current dt:dt=""r8"">0</Current><DateUtc dt:dt=""string"">2017-10-05T20:57:56Z</DateUtc></FrequencyChange></FrequencyChanges></Clock>\n",60.06,Nonnative Speaker,-774700513,10/5/2017,13:57:56,8:57:56 PM,female,8,Blockproc,SpeakerList,5,1,6,10,6,0,,-999999,29,771735,1,514,772249,SenarioProc,1,SenarioList,,,,2,6,56,2,10_2_cas.wav,10_2_pol.wav,10_2_cas.wav
PolitenessJapanese_Perception_ENG,1,1,20,"<?xml version=""1.0""?>\n<Clock xmlns:dt=""urn:schemas-microsoft-com:datatypes""><Description dt:dt=""string"">E-Prime Primary Realtime Clock</Description><StartTime><Timestamp dt:dt=""int"">0</Timestamp><DateUtc dt:dt=""string"">2017-10-05T20:57:56Z</DateUtc></StartTime><FrequencyChanges><FrequencyChange><Frequency dt:dt=""r8"">2597685</Frequency><Timestamp dt:dt=""r8"">1558297906726</Timestamp><Current dt:dt=""r8"">0</Current><DateUtc dt:dt=""string"">2017-10-05T20:57:56Z</DateUtc></FrequencyChange></FrequencyChanges></Clock>\n",60.06,Nonnative Speaker,-774700513,10/5/2017,13:57:56,8:57:56 PM,female,8,Blockproc,SpeakerList,5,1,6,10,7,0,,-999999,35,777196,2,853,778049,SenarioProc,1,SenarioList,,,,7,6,57,7,10_7_cas.wav,10_7_pol.wav,10_7_cas.wav
PolitenessJapanese_Perception_ENG,1,1,20,"<?xml version=""1.0""?>\n<Clock xmlns:dt=""urn:schemas-microsoft-com:datatypes""><Description dt:dt=""string"">E-Prime Primary Realtime Clock</Description><StartTime><Timestamp dt:dt=""int"">0</Timestamp><DateUtc dt:dt=""string"">2017-10-05T20:57:56Z</DateUtc></StartTime><FrequencyChanges><FrequencyChange><Frequency dt:dt=""r8"">2597685</Frequency><Timestamp dt:dt=""r8"">1558297906726</Timestamp><Current dt:dt=""r8"">0</Current><DateUtc dt:dt=""string"">2017-10-05T20:57:56Z</DateUtc></FrequencyChange></FrequencyChanges></Clock>\n",60.06,Nonnative Speaker,-774700513,10/5/2017,13:57:56,8:57:56 PM,female,8,Blockproc,SpeakerList,5,1,6,10,8,0,,-999999,33,783340,1,421,783761,SenarioProc,2,SenarioList,,,,1,6,58,1,10_1_pol.wav,10_1_cas.wav,10_1_pol.wav
PolitenessJapanese_Perception_ENG,1,1,20,"<?xml version=""1.0""?>\n<Clock xmlns:dt=""urn:schemas-microsoft-com:datatypes""><Description dt:dt=""string"">E-Prime Primary Realtime Clock</Description><StartTime><Timestamp dt:dt=""int"">0</Timestamp><DateUtc dt:dt=""string"">2017-10-05T20:57:56Z</DateUtc></StartTime><FrequencyChanges><FrequencyChange><Frequency dt:dt=""r8"">2597685</Frequency><Timestamp dt:dt=""r8"">1558297906726</Timestamp><Current dt:dt=""r8"">0</Current><DateUtc dt:dt=""string"">2017-10-05T20:57:56Z</DateUtc></FrequencyChange></FrequencyChanges></Clock>\n",60.06,Nonnative Speaker,-774700513,10/5/2017,13:57:56,8:57:56 PM,female,8,Blockproc,SpeakerList,5,1,6,10,9,0,,-999999,33,789700,1,533,790233,SenarioProc,2,SenarioList,,,,8,6,59,8,10_8_pol.wav,10_8_cas.wav,10_8_pol.wav
PolitenessJapanese_Perception_ENG,1,1,20,"<?xml version=""1.0""?>\n<Clock xmlns:dt=""urn:schemas-microsoft-com:datatypes""><Description dt:dt=""string"">E-Prime Primary Realtime Clock</Description><StartTime><Timestamp dt:dt=""int"">0</Timestamp><DateUtc dt:dt=""string"">2017-10-05T20:57:56Z</DateUtc></StartTime><FrequencyChanges><FrequencyChange><Frequency dt:dt=""r8"">2597685</Frequency><Timestamp dt:dt=""r8"">1558297906726</Timestamp><Current dt:dt=""r8"">0</Current><DateUtc dt:dt=""string"">2017-10-05T20:57:56Z</DateUtc></FrequencyChange></FrequencyChanges></Clock>\n",60.06,Nonnative Speaker,-774700513,10/5/2017,13:57:56,8:57:56 PM,female,8,Blockproc,SpeakerList,5,1,6,10,10,0,,-999999,27,796926,2,811,797737,SenarioProc,2,SenarioList,,,,4,6,60,4,10_4_pol.wav,10_4_cas.wav,10_4_pol.wav
PolitenessJapanese_Perception_ENG,1,1,20,"<?xml version=""1.0""?>\n<Clock xmlns:dt=""urn:schemas-microsoft-com:datatypes""><Description dt:dt=""string"">E-Prime Primary Realtime Clock</Description><StartTime><Timestamp dt:dt=""int"">0</Timestamp><DateUtc dt:dt=""string"">2017-10-05T20:57:56Z</DateUtc></StartTime><FrequencyChanges><FrequencyChange><Frequency dt:dt=""r8"">2597685</Frequency><Timestamp dt:dt=""r8"">1558297906726</Timestamp><Current dt:dt=""r8"">0</Current><DateUtc dt:dt=""string"">2017-10-05T20:57:56Z</DateUtc></FrequencyChange></FrequencyChanges></Clock>\n",60.06,Nonnative Speaker,-774700513,10/5/2017,13:57:56,8:57:56 PM,female,8,Blockproc,SpeakerList,5,1,6,10,11,0,,-999999,31,803686,2,843,804529,SoundProc,,SecondSenarioList,8,12,51,,,,8,10_8_cas.wav,10_8_pol.wav,
PolitenessJapanese_Perception_ENG,1,1,20,"<?xml version=""1.0""?>\n<Clock xmlns:dt=""urn:schemas-microsoft-com:datatypes""><Description dt:dt=""string"">E-Prime Primary Realtime Clock</Description><StartTime><Timestamp dt:dt=""int"">0</Timestamp><DateUtc dt:dt=""string"">2017-10-05T20:57:56Z</DateUtc></StartTime><FrequencyChanges><FrequencyChange><Frequency dt:dt=""r8"">2597685</Frequency><Timestamp dt:dt=""r8"">1558297906726</Timestamp><Current dt:dt=""r8"">0</Current><DateUtc dt:dt=""string"">2017-10-05T20:57:56Z</DateUtc></FrequencyChange></FrequencyChanges></Clock>\n",60.06,Nonnative Speaker,-774700513,10/5/2017,13:57:56,8:57:56 PM,female,8,Blockproc,SpeakerList,5,1,6,10,12,0,,-999999,30,809597,2,404,810001,SoundProc,,SecondSenarioList,10,12,52,,,,10,10_10_cas.wav,10_10_pol.wav,
PolitenessJapanese_Perception_ENG,1,1,20,"<?xml version=""1.0""?>\n<Clock xmlns:dt=""urn:schemas-microsoft-com:datatypes""><Description dt:dt=""string"">E-Prime Primary Realtime Clock</Description><StartTime><Timestamp dt:dt=""int"">0</Timestamp><DateUtc dt:dt=""string"">2017-10-05T20:57:56Z</DateUtc></StartTime><FrequencyChanges><FrequencyChange><Frequency dt:dt=""r8"">2597685</Frequency><Timestamp dt:dt=""r8"">1558297906726</Timestamp><Current dt:dt=""r8"">0</Current><DateUtc dt:dt=""string"">2017-10-05T20:57:56Z</DateUtc></FrequencyChange></FrequencyChanges></Clock>\n",60.06,Nonnative Speaker,-774700513,10/5/2017,13:57:56,8:57:56 PM,female,8,Blockproc,SpeakerList,5,1,6,10,13,0,,-999999,35,815708,1,421,816129,SoundProc,,SecondSenarioList,3,12,53,,,,3,10_3_pol.wav,10_3_cas.wav,
PolitenessJapanese_Perception_ENG,1,1,20,"<?xml version=""1.0""?>\n<Clock xmlns:dt=""urn:schemas-microsoft-com:datatypes""><Description dt:dt=""string"">E-Prime Primary Realtime Clock</Description><StartTime><Timestamp dt:dt=""int"">0</Timestamp><DateUtc dt:dt=""string"">2017-10-05T20:57:56Z</DateUtc></StartTime><FrequencyChanges><FrequencyChange><Frequency dt:dt=""r8"">2597685</Frequency><Timestamp dt:dt=""r8"">1558297906726</Timestamp><Current dt:dt=""r8"">0</Current><DateUtc dt:dt=""string"">2017-10-05T20:57:56Z</DateUtc></FrequencyChange></FrequencyChanges></Clock>\n",60.06,Nonnative Speaker,-774700513,10/5/2017,13:57:56,8:57:56 PM,female,8,Blockproc,SpeakerList,5,1,6,10,14,0,,-999999,29,821319,2,690,822009,SoundProc,,SecondSenarioList,9,12,54,,,,9,10_9_pol.wav,10_9_cas.wav,
PolitenessJapanese_Perception_ENG,1,1,20,"<?xml version=""1.0""?>\n<Clock xmlns:dt=""urn:schemas-microsoft-com:datatypes""><Description dt:dt=""string"">E-Prime Primary Realtime Clock</Description><StartTime><Timestamp dt:dt=""int"">0</Timestamp><DateUtc dt:dt=""string"">2017-10-05T20:57:56Z</DateUtc></StartTime><FrequencyChanges><FrequencyChange><Frequency dt:dt=""r8"">2597685</Frequency><Timestamp dt:dt=""r8"">1558297906726</Timestamp><Current dt:dt=""r8"">0</Current><DateUtc dt:dt=""string"">2017-10-05T20:57:56Z</DateUtc></FrequencyChange></FrequencyChanges></Clock>\n",60.06,Nonnative Speaker,-774700513,10/5/2017,13:57:56,8:57:56 PM,female,8,Blockproc,SpeakerList,5,1,6,10,15,0,,-999999,24,828628,1,508,829136,SoundProc,,SecondSenarioList,4,12,55,,,,4,10_4_cas.wav,10_4_pol.wav,
PolitenessJapanese_Perception_ENG,1,1,20,"<?xml version=""1.0""?>\n<Clock xmlns:dt=""urn:schemas-microsoft-com:datatypes""><Description dt:dt=""string"">E-Prime Primary Realtime Clock</Description><StartTime><Timestamp dt:dt=""int"">0</Timestamp><DateUtc dt:dt=""string"">2017-10-05T20:57:56Z</DateUtc></StartTime><FrequencyChanges><FrequencyChange><Frequency dt:dt=""r8"">2597685</Frequency><Timestamp dt:dt=""r8"">1558297906726</Timestamp><Current dt:dt=""r8"">0</Current><DateUtc dt:dt=""string"">2017-10-05T20:57:56Z</DateUtc></FrequencyChange></FrequencyChanges></Clock>\n",60.06,Nonnative Speaker,-774700513,10/5/2017,13:57:56,8:57:56 PM,female,8,Blockproc,SpeakerList,5,1,6,10,16,0,,-999999,22,834122,1,1190,835312,SoundProc,,SecondSenarioList,7,12,56,,,,7,10_7_pol.wav,10_7_cas.wav,
PolitenessJapanese_Perception_ENG,1,1,20,"<?xml version=""1.0""?>\n<Clock xmlns:dt=""urn:schemas-microsoft-com:datatypes""><Description dt:dt=""string"">E-Prime Primary Realtime Clock</Description><StartTime><Timestamp dt:dt=""int"">0</Timestamp><DateUtc dt:dt=""string"">2017-10-05T20:57:56Z</DateUtc></StartTime><FrequencyChanges><FrequencyChange><Frequency dt:dt=""r8"">2597685</Frequency><Timestamp dt:dt=""r8"">1558297906726</Timestamp><Current dt:dt=""r8"">0</Current><DateUtc dt:dt=""string"">2017-10-05T20:57:56Z</DateUtc></FrequencyChange></FrequencyChanges></Clock>\n",60.06,Nonnative Speaker,-774700513,10/5/2017,13:57:56,8:57:56 PM,female,8,Blockproc,SpeakerList,5,1,6,10,17,0,,-999999,31,840999,1,409,841408,SoundProc,,SecondSenarioList,5,12,57,,,,5,10_5_pol.wav,10_5_cas.wav,
PolitenessJapanese_Perception_ENG,1,1,20,"<?xml version=""1.0""?>\n<Clock xmlns:dt=""urn:schemas-microsoft-com:datatypes""><Description dt:dt=""string"">E-Prime Primary Realtime Clock</Description><StartTime><Timestamp dt:dt=""int"">0</Timestamp><DateUtc dt:dt=""string"">2017-10-05T20:57:56Z</DateUtc></StartTime><FrequencyChanges><FrequencyChange><Frequency dt:dt=""r8"">2597685</Frequency><Timestamp dt:dt=""r8"">1558297906726</Timestamp><Current dt:dt=""r8"">0</Current><DateUtc dt:dt=""string"">2017-10-05T20:57:56Z</DateUtc></FrequencyChange></FrequencyChanges></Clock>\n",60.06,Nonnative Speaker,-774700513,10/5/2017,13:57:56,8:57:56 PM,female,8,Blockproc,SpeakerList,5,1,6,10,18,0,,-999999,21,846494,2,426,846920,SoundProc,,SecondSenarioList,2,12,58,,,,2,10_2_pol.wav,10_2_cas.wav,
PolitenessJapanese_Perception_ENG,1,1,20,"<?xml version=""1.0""?>\n<Clock xmlns:dt=""urn:schemas-microsoft-com:datatypes""><Description dt:dt=""string"">E-Prime Primary Realtime Clock</Description><StartTime><Timestamp dt:dt=""int"">0</Timestamp><DateUtc dt:dt=""string"">2017-10-05T20:57:56Z</DateUtc></StartTime><FrequencyChanges><FrequencyChange><Frequency dt:dt=""r8"">2597685</Frequency><Timestamp dt:dt=""r8"">1558297906726</Timestamp><Current dt:dt=""r8"">0</Current><DateUtc dt:dt=""string"">2017-10-05T20:57:56Z</DateUtc></FrequencyChange></FrequencyChanges></Clock>\n",60.06,Nonnative Speaker,-774700513,10/5/2017,13:57:56,8:57:56 PM,female,8,Blockproc,SpeakerList,5,1,6,10,19,0,,-999999,28,852221,1,963,853184,SoundProc,,SecondSenarioList,1,12,59,,,,1,10_1_cas.wav,10_1_pol.wav,
PolitenessJapanese_Perception_ENG,1,1,20,"<?xml version=""1.0""?>\n<Clock xmlns:dt=""urn:schemas-microsoft-com:datatypes""><Description dt:dt=""string"">E-Prime Primary Realtime Clock</Description><StartTime><Timestamp dt:dt=""int"">0</Timestamp><DateUtc dt:dt=""string"">2017-10-05T20:57:56Z</DateUtc></StartTime><FrequencyChanges><FrequencyChange><Frequency dt:dt=""r8"">2597685</Frequency><Timestamp dt:dt=""r8"">1558297906726</Timestamp><Current dt:dt=""r8"">0</Current><DateUtc dt:dt=""string"">2017-10-05T20:57:56Z</DateUtc></FrequencyChange></FrequencyChanges></Clock>\n",60.06,Nonnative Speaker,-774700513,10/5/2017,13:57:56,8:57:56 PM,female,8,Blockproc,SpeakerList,5,1,6,10,20,0,,-999999,22,857965,2,787,858752,SoundProc,,SecondSenarioList,6,12,60,,,,6,10_6_pol.wav,10_6_cas.wav,
PolitenessJapanese_Perception_ENG,1,1,20,"<?xml version=""1.0""?>\n<Clock xmlns:dt=""urn:schemas-microsoft-com:datatypes""><Description dt:dt=""string"">E-Prime Primary Realtime Clock</Description><StartTime><Timestamp dt:dt=""int"">0</Timestamp><DateUtc dt:dt=""string"">2017-10-05T20:57:56Z</DateUtc></StartTime><FrequencyChanges><FrequencyChange><Frequency dt:dt=""r8"">2597685</Frequency><Timestamp dt:dt=""r8"">1558297906726</Timestamp><Current dt:dt=""r8"">0</Current><DateUtc dt:dt=""string"">2017-10-05T20:57:56Z</DateUtc></FrequencyChange></FrequencyChanges></Clock>\n",60.06,Nonnative Speaker,-774700513,10/5/2017,13:57:56,8:57:56 PM,female,9,Blockproc,SpeakerList,6,1,7,11,1,0,,-999999,21,867106,1,494,867600,SenarioProc,2,SenarioList,,,,10,7,61,10,11_10_pol.wav,11_10_cas.wav,11_10_pol.wav
PolitenessJapanese_Perception_ENG,1,1,20,"<?xml version=""1.0""?>\n<Clock xmlns:dt=""urn:schemas-microsoft-com:datatypes""><Description dt:dt=""string"">E-Prime Primary Realtime Clock</Description><StartTime><Timestamp dt:dt=""int"">0</Timestamp><DateUtc dt:dt=""string"">2017-10-05T20:57:56Z</DateUtc></StartTime><FrequencyChanges><FrequencyChange><Frequency dt:dt=""r8"">2597685</Frequency><Timestamp dt:dt=""r8"">1558297906726</Timestamp><Current dt:dt=""r8"">0</Current><DateUtc dt:dt=""string"">2017-10-05T20:57:56Z</DateUtc></FrequencyChange></FrequencyChanges></Clock>\n",60.06,Nonnative Speaker,-774700513,10/5/2017,13:57:56,8:57:56 PM,female,9,Blockproc,SpeakerList,6,1,7,11,2,0,,-999999,23,873234,2,414,873648,SenarioProc,1,SenarioList,,,,9,7,62,9,11_9_cas.wav,11_9_pol.wav,11_9_cas.wav
PolitenessJapanese_Perception_ENG,1,1,20,"<?xml version=""1.0""?>\n<Clock xmlns:dt=""urn:schemas-microsoft-com:datatypes""><Description dt:dt=""string"">E-Prime Primary Realtime Clock</Description><StartTime><Timestamp dt:dt=""int"">0</Timestamp><DateUtc dt:dt=""string"">2017-10-05T20:57:56Z</DateUtc></StartTime><FrequencyChanges><FrequencyChange><Frequency dt:dt=""r8"">2597685</Frequency><Timestamp dt:dt=""r8"">1558297906726</Timestamp><Current dt:dt=""r8"">0</Current><DateUtc dt:dt=""string"">2017-10-05T20:57:56Z</DateUtc></FrequencyChange></FrequencyChanges></Clock>\n",60.06,Nonnative Speaker,-774700513,10/5/2017,13:57:56,8:57:56 PM,female,9,Blockproc,SpeakerList,6,1,7,11,3,0,,-999999,22,879511,2,569,880080,SenarioProc,1,SenarioList,,,,3,7,63,3,11_3_cas.wav,11_3_pol.wav,11_3_cas.wav
PolitenessJapanese_Perception_ENG,1,1,20,"<?xml version=""1.0""?>\n<Clock xmlns:dt=""urn:schemas-microsoft-com:datatypes""><Description dt:dt=""string"">E-Prime Primary Realtime Clock</Description><StartTime><Timestamp dt:dt=""int"">0</Timestamp><DateUtc dt:dt=""string"">2017-10-05T20:57:56Z</DateUtc></StartTime><FrequencyChanges><FrequencyChange><Frequency dt:dt=""r8"">2597685</Frequency><Timestamp dt:dt=""r8"">1558297906726</Timestamp><Current dt:dt=""r8"">0</Current><DateUtc dt:dt=""string"">2017-10-05T20:57:56Z</DateUtc></FrequencyChange></FrequencyChanges></Clock>\n",60.06,Nonnative Speaker,-774700513,10/5/2017,13:57:56,8:57:56 PM,female,9,Blockproc,SpeakerList,6,1,7,11,4,0,,-999999,24,885405,1,619,886024,SenarioProc,1,SenarioList,,,,1,7,64,1,11_1_cas.wav,11_1_pol.wav,11_1_cas.wav
PolitenessJapanese_Perception_ENG,1,1,20,"<?xml version=""1.0""?>\n<Clock xmlns:dt=""urn:schemas-microsoft-com:datatypes""><Description dt:dt=""string"">E-Prime Primary Realtime Clock</Description><StartTime><Timestamp dt:dt=""int"">0</Timestamp><DateUtc dt:dt=""string"">2017-10-05T20:57:56Z</DateUtc></StartTime><FrequencyChanges><FrequencyChange><Frequency dt:dt=""r8"">2597685</Frequency><Timestamp dt:dt=""r8"">1558297906726</Timestamp><Current dt:dt=""r8"">0</Current><DateUtc dt:dt=""string"">2017-10-05T20:57:56Z</DateUtc></FrequencyChange></FrequencyChanges></Clock>\n",60.06,Nonnative Speaker,-774700513,10/5/2017,13:57:56,8:57:56 PM,female,9,Blockproc,SpeakerList,6,1,7,11,5,0,,-999999,19,892115,1,749,892864,SenarioProc,1,SenarioList,,,,8,7,65,8,11_8_cas.wav,11_8_pol.wav,11_8_cas.wav
