ExperimentName,Subject,Session,Age,Clock.Information,Display.RefreshRate,Group,RandomSeed,SessionDate,SessionTime,SessionTimeUtc,Sex,Block,Procedure[Block],Running[Block],SpeakerList,SpeakerList.Cycle,SpeakerList.Sample,SpeakerNumber,Trial,Decision.ACC[Trial],Decision.CRESP[Trial],Decision.DurationError[Trial],Decision.OnsetDelay[Trial],Decision.OnsetTime[Trial],Decision.RESP[Trial],Decision.RT[Trial],Decision.RTTime[Trial],Procedure[Trial],RandomizeSound,Running[Trial],SecondSenarioList,SecondSenarioList.Cycle,SecondSenarioList.Sample,SenarioList,SenarioList.Cycle,SenarioList.Sample,SenarioNumber,SoundFile,SoundFile2,SoundStim
PolitenessJapanese_Perception,9,1,20,"<?xml version=""1.0""?>\n<Clock xmlns:dt=""urn:schemas-microsoft-com:datatypes""><Description dt:dt=""string"">E-Prime Primary Realtime Clock</Description><StartTime><Timestamp dt:dt=""int"">0</Timestamp><DateUtc dt:dt=""string"">2016-04-22T20:35:21Z</DateUtc></StartTime><FrequencyChanges><FrequencyChange><Frequency dt:dt=""r8"">2857431</Frequency><Timestamp dt:dt=""r8"">2077209034806</Timestamp><Current dt:dt=""r8"">0</Current><DateUtc dt:dt=""string"">2016-04-22T20:35:21Z</DateUtc></FrequencyChange></FrequencyChanges></Clock>\n",60.002,Native Japanese Speaker,-1554578449,4/22/2016,13:35:21,?? 8:35:21,female,3,Blockproc,SpeakerList,2,1,1,2,1,0,,-999999,31,379779,2,374,380153,SenarioProc,1,SenarioList,,,,6,1,1,6,2_6_cas.wav,2_6_pol.wav,2_6_cas.wav
PolitenessJapanese_Perception,9,1,20,"<?xml version=""1.0""?>\n<Clock xmlns:dt=""urn:schemas-microsoft-com:datatypes""><Description dt:dt=""string"">E-Prime Primary Realtime Clock</Description><StartTime><Timestamp dt:dt=""int"">0</Timestamp><DateUtc dt:dt=""string"">2016-04-22T20:35:21Z</DateUtc></StartTime><FrequencyChanges><FrequencyChange><Frequency dt:dt=""r8"">2857431</Frequency><Timestamp dt:dt=""r8"">2077209034806</Timestamp><Current dt:dt=""r8"">0</Current><DateUtc dt:dt=""string"">2016-04-22T20:35:21Z</DateUtc></FrequencyChange></FrequencyChanges></Clock>\n",60.002,Native Japanese Speaker,-1554578449,4/22/2016,13:35:21,?? 8:35:21,female,3,Blockproc,SpeakerList,2,1,1,2,2,0,,-999999,31,385629,1,636,386265,SenarioProc,2,SenarioList,,,,9,1,2,9,2_9_pol.wav,2_9_cas.wav,2_9_pol.wav
PolitenessJapanese_Perception,9,1,20,"<?xml version=""1.0""?>\n<Clock xmlns:dt=""urn:schemas-microsoft-com:datatypes""><Description dt:dt=""string"">E-Prime Primary Realtime Clock</Description><StartTime><Timestamp dt:dt=""int"">0</Timestamp><DateUtc dt:dt=""string"">2016-04-22T20:35:21Z</DateUtc></StartTime><FrequencyChanges><FrequencyChange><Frequency dt:dt=""r8"">2857431</Frequency><Timestamp dt:dt=""r8"">2077209034806</Timestamp><Current dt:dt=""r8"">0</Current><DateUtc dt:dt=""string"">2016-04-22T20:35:21Z</DateUtc></FrequencyChange></FrequencyChanges></Clock>\n",60.002,Native Japanese Speaker,-1554578449,4/22/2016,13:35:21,?? 8:35:21,female,3,Blockproc,SpeakerList,2,1,1,2,3,0,,-999999,31,392679,2,1218,393897,SenarioProc,2,SenarioList,,,,8,1,3,8,2_8_pol.wav,2_8_cas.wav,2_8_pol.wav
PolitenessJapanese_Perception,9,1,20,"<?xml version=""1.0""?>\n<Clock xmlns:dt=""urn:schemas-microsoft-com:datatypes""><Description dt:dt=""string"">E-Prime Primary Realtime Clock</Description><StartTime><Timestamp dt:dt=""int"">0</Timestamp><DateUtc dt:dt=""string"">2016-04-22T20:35:21Z</DateUtc></StartTime><FrequencyChanges><FrequencyChange><Frequency dt:dt=""r8"">2857431</Frequency><Timestamp dt:dt=""r8"">2077209034806</Timestamp><Current dt:dt=""r8"">0</Current><DateUtc dt:dt=""string"">2016-04-22T20:35:21Z</DateUtc></FrequencyChange></FrequencyChanges></Clock>\n",60.002,Native Japanese Speaker,-1554578449,4/22/2016,13:35:21,?? 8:35:21,female,3,Blockproc,SpeakerList,2,1,1,2,4,0,,-999999,34,399312,1,585,399897,SenarioProc,2,SenarioList,,,,2,1,4,2,2_2_pol.wav,2_2_cas.wav,2_2_pol.wav
PolitenessJapanese_Perception,9,1,20,"<?xml version=""1.0""?>\n<Clock xmlns:dt=""urn:schemas-microsoft-com:datatypes""><Description dt:dt=""string"">E-Prime Primary Realtime Clock</Description><StartTime><Timestamp dt:dt=""int"">0</Timestamp><DateUtc dt:dt=""string"">2016-04-22T20:35:21Z</DateUtc></StartTime><FrequencyChanges><FrequencyChange><Frequency dt:dt=""r8"">2857431</Frequency><Timestamp dt:dt=""r8"">2077209034806</Timestamp><Current dt:dt=""r8"">0</Current><DateUtc dt:dt=""string"">2016-04-22T20:35:21Z</DateUtc></FrequencyChange></FrequencyChanges></Clock>\n",60.002,Native Japanese Speaker,-1554578449,4/22/2016,13:35:21,?? 8:35:21,female,3,Blockproc,SpeakerList,2,1,1,2,5,0,,-999999,43,406912,2,721,407633,SenarioProc,1,SenarioList,,,,4,1,5,4,2_4_cas.wav,2_4_pol.wav,2_4_cas.wav
PolitenessJapanese_Perception,9,1,20,"<?xml version=""1.0""?>\n<Clock xmlns:dt=""urn:schemas-microsoft-com:datatypes""><Description dt:dt=""string"">E-Prime Primary Realtime Clock</Description><StartTime><Timestamp dt:dt=""int"">0</Timestamp><DateUtc dt:dt=""string"">2016-04-22T20:35:21Z</DateUtc></StartTime><FrequencyChanges><FrequencyChange><Frequency dt:dt=""r8"">2857431</Frequency><Timestamp dt:dt=""r8"">2077209034806</Timestamp><Current dt:dt=""r8"">0</Current><DateUtc dt:dt=""string"">2016-04-22T20:35:21Z</DateUtc></FrequencyChange></FrequencyChanges></Clock>\n",60.002,Native Japanese Speaker,-1554578449,4/22/2016,13:35:21,?? 8:35:21,female,3,Blockproc,SpeakerList,2,1,1,2,6,0,,-999999,44,412812,1,309,413121,SenarioProc,2,SenarioList,,,,7,1,6,7,2_7_pol.wav,2_7_cas.wav,2_7_pol.wav
PolitenessJapanese_Perception,9,1,20,"<?xml version=""1.0""?>\n<Clock xmlns:dt=""urn:schemas-microsoft-com:datatypes""><Description dt:dt=""string"">E-Prime Primary Realtime Clock</Description><StartTime><Timestamp dt:dt=""int"">0</Timestamp><DateUtc dt:dt=""string"">2016-04-22T20:35:21Z</DateUtc></StartTime><FrequencyChanges><FrequencyChange><Frequency dt:dt=""r8"">2857431</Frequency><Timestamp dt:dt=""r8"">2077209034806</Timestamp><Current dt:dt=""r8"">0</Current><DateUtc dt:dt=""string"">2016-04-22T20:35:21Z</DateUtc></FrequencyChange></FrequencyChanges></Clock>\n",60.002,Native Japanese Speaker,-1554578449,4/22/2016,13:35:21,?? 8:35:21,female,3,Blockproc,SpeakerList,2,1,1,2,7,0,,-999999,40,418828,2,461,419289,SenarioProc,1,SenarioList,,,,3,1,7,3,2_3_cas.wav,2_3_pol.wav,2_3_cas.wav
PolitenessJapanese_Perception,9,1,20,"<?xml version=""1.0""?>\n<Clock xmlns:dt=""urn:schemas-microsoft-com:datatypes""><Description dt:dt=""string"">E-Prime Primary Realtime Clock</Description><StartTime><Timestamp dt:dt=""int"">0</Timestamp><DateUtc dt:dt=""string"">2016-04-22T20:35:21Z</DateUtc></StartTime><FrequencyChanges><FrequencyChange><Frequency dt:dt=""r8"">2857431</Frequency><Timestamp dt:dt=""r8"">2077209034806</Timestamp><Current dt:dt=""r8"">0</Current><DateUtc dt:dt=""string"">2016-04-22T20:35:21Z</DateUtc></FrequencyChange></FrequencyChanges></Clock>\n",60.002,Native Japanese Speaker,-1554578449,4/22/2016,13:35:21,?? 8:35:21,female,3,Blockproc,SpeakerList,2,1,1,2,8,0,,-999999,30,424328,2,249,424577,SenarioProc,1,SenarioList,,,,10,1,8,10,2_10_cas.wav,2_10_pol.wav,2_10_cas.wav
PolitenessJapanese_Perception,9,1,20,"<?xml version=""1.0""?>\n<Clock xmlns:dt=""urn:schemas-microsoft-com:datatypes""><Description dt:dt=""string"">E-Prime Primary Realtime Clock</Description><StartTime><Timestamp dt:dt=""int"">0</Timestamp><DateUtc dt:dt=""string"">2016-04-22T20:35:21Z</DateUtc></StartTime><FrequencyChanges><FrequencyChange><Frequency dt:dt=""r8"">2857431</Frequency><Timestamp dt:dt=""r8"">2077209034806</Timestamp><Current dt:dt=""r8"">0</Current><DateUtc dt:dt=""string"">2016-04-22T20:35:21Z</DateUtc></FrequencyChange></FrequencyChanges></Clock>\n",60.002,Native Japanese Speaker,-1554578449,4/22/2016,13:35:21,?? 8:35:21,female,3,Blockproc,SpeakerList,2,1,1,2,9,0,,-999999,36,430444,2,437,430881,SenarioProc,2,SenarioList,,,,5,1,9,5,2_5_pol.wav,2_5_cas.wav,2_5_pol.wav
PolitenessJapanese_Perception,9,1,20,"<?xml version=""1.0""?>\n<Clock xmlns:dt=""urn:schemas-microsoft-com:datatypes""><Description dt:dt=""string"">E-Prime Primary Realtime Clock</Description><StartTime><Timestamp dt:dt=""int"">0</Timestamp><DateUtc dt:dt=""string"">2016-04-22T20:35:21Z</DateUtc></StartTime><FrequencyChanges><FrequencyChange><Frequency dt:dt=""r8"">2857431</Frequency><Timestamp dt:dt=""r8"">2077209034806</Timestamp><Current dt:dt=""r8"">0</Current><DateUtc dt:dt=""string"">2016-04-22T20:35:21Z</DateUtc></FrequencyChange></FrequencyChanges></Clock>\n",60.002,Native Japanese Speaker,-1554578449,4/22/2016,13:35:21,?? 8:35:21,female,3,Blockproc,SpeakerList,2,1,1,2,10,0,,-999999,33,436261,2,308,436569,SenarioProc,1,SenarioList,,,,1,1,10,1,2_1_cas.wav,2_1_pol.wav,2_1_cas.wav
PolitenessJapanese_Perception,9,1,20,"<?xml version=""1.0""?>\n<Clock xmlns:dt=""urn:schemas-microsoft-com:datatypes""><Description dt:dt=""string"">E-Prime Primary Realtime Clock</Description><StartTime><Timestamp dt:dt=""int"">0</Timestamp><DateUtc dt:dt=""string"">2016-04-22T20:35:21Z</DateUtc></StartTime><FrequencyChanges><FrequencyChange><Frequency dt:dt=""r8"">2857431</Frequency><Timestamp dt:dt=""r8"">2077209034806</Timestamp><Current dt:dt=""r8"">0</Current><DateUtc dt:dt=""string"">2016-04-22T20:35:21Z</DateUtc></FrequencyChange></FrequencyChanges></Clock>\n",60.002,Native Japanese Speaker,-1554578449,4/22/2016,13:35:21,?? 8:35:21,female,3,Blockproc,SpeakerList,2,1,1,2,11,0,,-999999,36,441644,2,493,442137,SoundProc,,SecondSenarioList,10,2,1,,,,10,2_10_pol.wav,2_10_cas.wav,
PolitenessJapanese_Perception,9,1,20,"<?xml version=""1.0""?>\n<Clock xmlns:dt=""urn:schemas-microsoft-com:datatypes""><Description dt:dt=""string"">E-Prime Primary Realtime Clock</Description><StartTime><Timestamp dt:dt=""int"">0</Timestamp><DateUtc dt:dt=""string"">2016-04-22T20:35:21Z</DateUtc></StartTime><FrequencyChanges><FrequencyChange><Frequency dt:dt=""r8"">2857431</Frequency><Timestamp dt:dt=""r8"">2077209034806</Timestamp><Current dt:dt=""r8"">0</Current><DateUtc dt:dt=""string"">2016-04-22T20:35:21Z</DateUtc></FrequencyChange></FrequencyChanges></Clock>\n",60.002,Native Japanese Speaker,-1554578449,4/22/2016,13:35:21,?? 8:35:21,female,3,Blockproc,SpeakerList,2,1,1,2,12,0,,-999999,28,446777,1,880,447657,SoundProc,,SecondSenarioList,6,2,2,,,,6,2_6_pol.wav,2_6_cas.wav,
PolitenessJapanese_Perception,9,1,20,"<?xml version=""1.0""?>\n<Clock xmlns:dt=""urn:schemas-microsoft-com:datatypes""><Description dt:dt=""string"">E-Prime Primary Realtime Clock</Description><StartTime><Timestamp dt:dt=""int"">0</Timestamp><DateUtc dt:dt=""string"">2016-04-22T20:35:21Z</DateUtc></StartTime><FrequencyChanges><FrequencyChange><Frequency dt:dt=""r8"">2857431</Frequency><Timestamp dt:dt=""r8"">2077209034806</Timestamp><Current dt:dt=""r8"">0</Current><DateUtc dt:dt=""string"">2016-04-22T20:35:21Z</DateUtc></FrequencyChange></FrequencyChanges></Clock>\n",60.002,Native Japanese Speaker,-1554578449,4/22/2016,13:35:21,?? 8:35:21,female,3,Blockproc,SpeakerList,2,1,1,2,13,0,,-999999,42,453110,2,1530,454640,SoundProc,,SecondSenarioList,9,2,3,,,,9,2_9_cas.wav,2_9_pol.wav,
PolitenessJapanese_Perception,9,1,20,"<?xml version=""1.0""?>\n<Clock xmlns:dt=""urn:schemas-microsoft-com:datatypes""><Description dt:dt=""string"">E-Prime Primary Realtime Clock</Description><StartTime><Timestamp dt:dt=""int"">0</Timestamp><DateUtc dt:dt=""string"">2016-04-22T20:35:21Z</DateUtc></StartTime><FrequencyChanges><FrequencyChange><Frequency dt:dt=""r8"">2857431</Frequency><Timestamp dt:dt=""r8"">2077209034806</Timestamp><Current dt:dt=""r8"">0</Current><DateUtc dt:dt=""string"">2016-04-22T20:35:21Z</DateUtc></FrequencyChange></FrequencyChanges></Clock>\n",60.002,Native Japanese Speaker,-1554578449,4/22/2016,13:35:21,?? 8:35:21,female,3,Blockproc,SpeakerList,2,1,1,2,14,0,,-999999,29,460977,1,335,461312,SoundProc,,SecondSenarioList,8,2,4,,,,8,2_8_cas.wav,2_8_pol.wav,
PolitenessJapanese_Perception,9,1,20,"<?xml version=""1.0""?>\n<Clock xmlns:dt=""urn:schemas-microsoft-com:datatypes""><Description dt:dt=""string"">E-Prime Primary Realtime Clock</Description><StartTime><Timestamp dt:dt=""int"">0</Timestamp><DateUtc dt:dt=""string"">2016-04-22T20:35:21Z</DateUtc></StartTime><FrequencyChanges><FrequencyChange><Frequency dt:dt=""r8"">2857431</Frequency><Timestamp dt:dt=""r8"">2077209034806</Timestamp><Current dt:dt=""r8"">0</Current><DateUtc dt:dt=""string"">2016-04-22T20:35:21Z</DateUtc></FrequencyChange></FrequencyChanges></Clock>\n",60.002,Native Japanese Speaker,-1554578449,4/22/2016,13:35:21,?? 8:35:21,female,3,Blockproc,SpeakerList,2,1,1,2,15,0,,-999999,33,468210,1,1624,469834,SoundProc,,SecondSenarioList,4,2,5,,,,4,2_4_pol.wav,2_4_cas.wav,
PolitenessJapanese_Perception,9,1,20,"<?xml version=""1.0""?>\n<Clock xmlns:dt=""urn:schemas-microsoft-com:datatypes""><Description dt:dt=""string"">E-Prime Primary Realtime Clock</Description><StartTime><Timestamp dt:dt=""int"">0</Timestamp><DateUtc dt:dt=""string"">2016-04-22T20:35:21Z</DateUtc></StartTime><FrequencyChanges><FrequencyChange><Frequency dt:dt=""r8"">2857431</Frequency><Timestamp dt:dt=""r8"">2077209034806</Timestamp><Current dt:dt=""r8"">0</Current><DateUtc dt:dt=""string"">2016-04-22T20:35:21Z</DateUtc></FrequencyChange></FrequencyChanges></Clock>\n",60.002,Native Japanese Speaker,-1554578449,4/22/2016,13:35:21,?? 8:35:21,female,3,Blockproc,SpeakerList,2,1,1,2,16,0,,-999999,36,475243,2,413,475656,SoundProc,,SecondSenarioList,2,2,6,,,,2,2_2_cas.wav,2_2_pol.wav,
PolitenessJapanese_Perception,9,1,20,"<?xml version=""1.0""?>\n<Clock xmlns:dt=""urn:schemas-microsoft-com:datatypes""><Description dt:dt=""string"">E-Prime Primary Realtime Clock</Description><StartTime><Timestamp dt:dt=""int"">0</Timestamp><DateUtc dt:dt=""string"">2016-04-22T20:35:21Z</DateUtc></StartTime><FrequencyChanges><FrequencyChange><Frequency dt:dt=""r8"">2857431</Frequency><Timestamp dt:dt=""r8"">2077209034806</Timestamp><Current dt:dt=""r8"">0</Current><DateUtc dt:dt=""string"">2016-04-22T20:35:21Z</DateUtc></FrequencyChange></FrequencyChanges></Clock>\n",60.002,Native Japanese Speaker,-1554578449,4/22/2016,13:35:21,?? 8:35:21,female,3,Blockproc,SpeakerList,2,1,1,2,17,0,,-999999,43,480810,2,374,481184,SoundProc,,SecondSenarioList,7,2,7,,,,7,2_7_cas.wav,2_7_pol.wav,
PolitenessJapanese_Perception,9,1,20,"<?xml version=""1.0""?>\n<Clock xmlns:dt=""urn:schemas-microsoft-com:datatypes""><Description dt:dt=""string"">E-Prime Primary Realtime Clock</Description><StartTime><Timestamp dt:dt=""int"">0</Timestamp><DateUtc dt:dt=""string"">2016-04-22T20:35:21Z</DateUtc></StartTime><FrequencyChanges><FrequencyChange><Frequency dt:dt=""r8"">2857431</Frequency><Timestamp dt:dt=""r8"">2077209034806</Timestamp><Current dt:dt=""r8"">0</Current><DateUtc dt:dt=""string"">2016-04-22T20:35:21Z</DateUtc></FrequencyChange></FrequencyChanges></Clock>\n",60.002,Native Japanese Speaker,-1554578449,4/22/2016,13:35:21,?? 8:35:21,female,3,Blockproc,SpeakerList,2,1,1,2,18,0,,-999999,32,487009,2,927,487936,SoundProc,,SecondSenarioList,5,2,8,,,,5,2_5_cas.wav,2_5_pol.wav,
PolitenessJapanese_Perception,9,1,20,"<?xml version=""1.0""?>\n<Clock xmlns:dt=""urn:schemas-microsoft-com:datatypes""><Description dt:dt=""string"">E-Prime Primary Realtime Clock</Description><StartTime><Timestamp dt:dt=""int"">0</Timestamp><DateUtc dt:dt=""string"">2016-04-22T20:35:21Z</DateUtc></StartTime><FrequencyChanges><FrequencyChange><Frequency dt:dt=""r8"">2857431</Frequency><Timestamp dt:dt=""r8"">2077209034806</Timestamp><Current dt:dt=""r8"">0</Current><DateUtc dt:dt=""string"">2016-04-22T20:35:21Z</DateUtc></FrequencyChange></FrequencyChanges></Clock>\n",60.002,Native Japanese Speaker,-1554578449,4/22/2016,13:35:21,?? 8:35:21,female,3,Blockproc,SpeakerList,2,1,1,2,19,0,,-999999,42,493609,1,383,493992,SoundProc,,SecondSenarioList,3,2,9,,,,3,2_3_pol.wav,2_3_cas.wav,
PolitenessJapanese_Perception,9,1,20,"<?xml version=""1.0""?>\n<Clock xmlns:dt=""urn:schemas-microsoft-com:datatypes""><Description dt:dt=""string"">E-Prime Primary Realtime Clock</Description><StartTime><Timestamp dt:dt=""int"">0</Timestamp><DateUtc dt:dt=""string"">2016-04-22T20:35:21Z</DateUtc></StartTime><FrequencyChanges><FrequencyChange><Frequency dt:dt=""r8"">2857431</Frequency><Timestamp dt:dt=""r8"">2077209034806</Timestamp><Current dt:dt=""r8"">0</Current><DateUtc dt:dt=""string"">2016-04-22T20:35:21Z</DateUtc></FrequencyChange></FrequencyChanges></Clock>\n",60.002,Native Japanese Speaker,-1554578449,4/22/2016,13:35:21,?? 8:35:21,female,3,Blockproc,SpeakerList,2,1,1,2,20,0,,-999999,35,499342,1,330,499672,SoundProc,,SecondSenarioList,1,2,10,,,,1,2_1_pol.wav,2_1_cas.wav,
PolitenessJapanese_Perception,9,1,20,"<?xml version=""1.0""?>\n<Clock xmlns:dt=""urn:schemas-microsoft-com:datatypes""><Description dt:dt=""string"">E-Prime Primary Realtime Clock</Description><StartTime><Timestamp dt:dt=""int"">0</Timestamp><DateUtc dt:dt=""string"">2016-04-22T20:35:21Z</DateUtc></StartTime><FrequencyChanges><FrequencyChange><Frequency dt:dt=""r8"">2857431</Frequency><Timestamp dt:dt=""r8"">2077209034806</Timestamp><Current dt:dt=""r8"">0</Current><DateUtc dt:dt=""string"">2016-04-22T20:35:21Z</DateUtc></FrequencyChange></FrequencyChanges></Clock>\n",60.002,Native Japanese Speaker,-1554578449,4/22/2016,13:35:21,?? 8:35:21,female,4,Blockproc,SpeakerList,5,1,2,10,1,0,,-999999,38,510675,1,949,511624,SenarioProc,2,SenarioList,,,,1,2,11,1,10_1_pol.wav,10_1_cas.wav,10_1_pol.wav
PolitenessJapanese_Perception,9,1,20,"<?xml version=""1.0""?>\n<Clock xmlns:dt=""urn:schemas-microsoft-com:datatypes""><Description dt:dt=""string"">E-Prime Primary Realtime Clock</Description><StartTime><Timestamp dt:dt=""int"">0</Timestamp><DateUtc dt:dt=""string"">2016-04-22T20:35:21Z</DateUtc></StartTime><FrequencyChanges><FrequencyChange><Frequency dt:dt=""r8"">2857431</Frequency><Timestamp dt:dt=""r8"">2077209034806</Timestamp><Current dt:dt=""r8"">0</Current><DateUtc dt:dt=""string"">2016-04-22T20:35:21Z</DateUtc></FrequencyChange></FrequencyChanges></Clock>\n",60.002,Native Japanese Speaker,-1554578449,4/22/2016,13:35:21,?? 8:35:21,female,4,Blockproc,SpeakerList,5,1,2,10,2,0,,-999999,35,516742,1,1066,517808,SenarioProc,1,SenarioList,,,,10,2,12,10,10_10_cas.wav,10_10_pol.wav,10_10_cas.wav
PolitenessJapanese_Perception,9,1,20,"<?xml version=""1.0""?>\n<Clock xmlns:dt=""urn:schemas-microsoft-com:datatypes""><Description dt:dt=""string"">E-Prime Primary Realtime Clock</Description><StartTime><Timestamp dt:dt=""int"">0</Timestamp><DateUtc dt:dt=""string"">2016-04-22T20:35:21Z</DateUtc></StartTime><FrequencyChanges><FrequencyChange><Frequency dt:dt=""r8"">2857431</Frequency><Timestamp dt:dt=""r8"">2077209034806</Timestamp><Current dt:dt=""r8"">0</Current><DateUtc dt:dt=""string"">2016-04-22T20:35:21Z</DateUtc></FrequencyChange></FrequencyChanges></Clock>\n",60.002,Native Japanese Speaker,-1554578449,4/22/2016,13:35:21,?? 8:35:21,female,4,Blockproc,SpeakerList,5,1,2,10,3,0,,-999999,29,523508,1,564,524072,SenarioProc,2,SenarioList,,,,3,2,13,3,10_3_pol.wav,10_3_cas.wav,10_3_pol.wav
PolitenessJapanese_Perception,9,1,20,"<?xml version=""1.0""?>\n<Clock xmlns:dt=""urn:schemas-microsoft-com:datatypes""><Description dt:dt=""string"">E-Prime Primary Realtime Clock</Description><StartTime><Timestamp dt:dt=""int"">0</Timestamp><DateUtc dt:dt=""string"">2016-04-22T20:35:21Z</DateUtc></StartTime><FrequencyChanges><FrequencyChange><Frequency dt:dt=""r8"">2857431</Frequency><Timestamp dt:dt=""r8"">2077209034806</Timestamp><Current dt:dt=""r8"">0</Current><DateUtc dt:dt=""string"">2016-04-22T20:35:21Z</DateUtc></FrequencyChange></FrequencyChanges></Clock>\n",60.002,Native Japanese Speaker,-1554578449,4/22/2016,13:35:21,?? 8:35:21,female,4,Blockproc,SpeakerList,5,1,2,10,4,0,,-999999,34,528891,1,997,529888,SenarioProc,2,SenarioList,,,,6,2,14,6,10_6_pol.wav,10_6_cas.wav,10_6_pol.wav
PolitenessJapanese_Perception,9,1,20,"<?xml version=""1.0""?>\n<Clock xmlns:dt=""urn:schemas-microsoft-com:datatypes""><Description dt:dt=""string"">E-Prime Primary Realtime Clock</Description><StartTime><Timestamp dt:dt=""int"">0</Timestamp><DateUtc dt:dt=""string"">2016-04-22T20:35:21Z</DateUtc></StartTime><FrequencyChanges><FrequencyChange><Frequency dt:dt=""r8"">2857431</Frequency><Timestamp dt:dt=""r8"">2077209034806</Timestamp><Current dt:dt=""r8"">0</Current><DateUtc dt:dt=""string"">2016-04-22T20:35:21Z</DateUtc></FrequencyChange></FrequencyChanges></Clock>\n",60.002,Native Japanese Speaker,-1554578449,4/22/2016,13:35:21,?? 8:35:21,female,4,Blockproc,SpeakerList,5,1,2,10,5,0,,-999999,41,535608,2,640,536248,SenarioProc,2,SenarioList,,,,5,2,15,5,10_5_pol.wav,10_5_cas.wav,10_5_pol.wav
PolitenessJapanese_Perception,9,1,20,"<?xml version=""1.0""?>\n<Clock xmlns:dt=""urn:schemas-microsoft-com:datatypes""><Description dt:dt=""string"">E-Prime Primary Realtime Clock</Description><StartTime><Timestamp dt:dt=""int"">0</Timestamp><DateUtc dt:dt=""string"">2016-04-22T20:35:21Z</DateUtc></StartTime><FrequencyChanges><FrequencyChange><Frequency dt:dt=""r8"">2857431</Frequency><Timestamp dt:dt=""r8"">2077209034806</Timestamp><Current dt:dt=""r8"">0</Current><DateUtc dt:dt=""string"">2016-04-22T20:35:21Z</DateUtc></FrequencyChange></FrequencyChanges></Clock>\n",60.002,Native Japanese Speaker,-1554578449,4/22/2016,13:35:21,?? 8:35:21,female,4,Blockproc,SpeakerList,5,1,2,10,6,0,,-999999,41,541508,1,804,542312,SenarioProc,2,SenarioList,,,,9,2,16,9,10_9_pol.wav,10_9_cas.wav,10_9_pol.wav
PolitenessJapanese_Perception,9,1,20,"<?xml version=""1.0""?>\n<Clock xmlns:dt=""urn:schemas-microsoft-com:datatypes""><Description dt:dt=""string"">E-Prime Primary Realtime Clock</Description><StartTime><Timestamp dt:dt=""int"">0</Timestamp><DateUtc dt:dt=""string"">2016-04-22T20:35:21Z</DateUtc></StartTime><FrequencyChanges><FrequencyChange><Frequency dt:dt=""r8"">2857431</Frequency><Timestamp dt:dt=""r8"">2077209034806</Timestamp><Current dt:dt=""r8"">0</Current><DateUtc dt:dt=""string"">2016-04-22T20:35:21Z</DateUtc></FrequencyChange></FrequencyChanges></Clock>\n",60.002,Native Japanese Speaker,-1554578449,4/22/2016,13:35:21,?? 8:35:21,female,4,Blockproc,SpeakerList,5,1,2,10,7,0,,-999999,29,547307,1,389,547696,SenarioProc,1,SenarioList,,,,7,2,17,7,10_7_cas.wav,10_7_pol.wav,10_7_cas.wav
PolitenessJapanese_Perception,9,1,20,"<?xml version=""1.0""?>\n<Clock xmlns:dt=""urn:schemas-microsoft-com:datatypes""><Description dt:dt=""string"">E-Prime Primary Realtime Clock</Description><StartTime><Timestamp dt:dt=""int"">0</Timestamp><DateUtc dt:dt=""string"">2016-04-22T20:35:21Z</DateUtc></StartTime><FrequencyChanges><FrequencyChange><Frequency dt:dt=""r8"">2857431</Frequency><Timestamp dt:dt=""r8"">2077209034806</Timestamp><Current dt:dt=""r8"">0</Current><DateUtc dt:dt=""string"">2016-04-22T20:35:21Z</DateUtc></FrequencyChange></FrequencyChanges></Clock>\n",60.002,Native Japanese Speaker,-1554578449,4/22/2016,13:35:21,?? 8:35:21,female,4,Blockproc,SpeakerList,5,1,2,10,8,0,,-999999,30,553707,2,381,554088,SenarioProc,1,SenarioList,,,,8,2,18,8,10_8_cas.wav,10_8_pol.wav,10_8_cas.wav
PolitenessJapanese_Perception,9,1,20,"<?xml version=""1.0""?>\n<Clock xmlns:dt=""urn:schemas-microsoft-com:datatypes""><Description dt:dt=""string"">E-Prime Primary Realtime Clock</Description><StartTime><Timestamp dt:dt=""int"">0</Timestamp><DateUtc dt:dt=""string"">2016-04-22T20:35:21Z</DateUtc></StartTime><FrequencyChanges><FrequencyChange><Frequency dt:dt=""r8"">2857431</Frequency><Timestamp dt:dt=""r8"">2077209034806</Timestamp><Current dt:dt=""r8"">0</Current><DateUtc dt:dt=""string"">2016-04-22T20:35:21Z</DateUtc></FrequencyChange></FrequencyChanges></Clock>\n",60.002,Native Japanese Speaker,-1554578449,4/22/2016,13:35:21,?? 8:35:21,female,4,Blockproc,SpeakerList,5,1,2,10,9,0,,-999999,27,560724,2,2068,562792,SenarioProc,2,SenarioList,,,,4,2,19,4,10_4_pol.wav,10_4_cas.wav,10_4_pol.wav
PolitenessJapanese_Perception,9,1,20,"<?xml version=""1.0""?>\n<Clock xmlns:dt=""urn:schemas-microsoft-com:datatypes""><Description dt:dt=""string"">E-Prime Primary Realtime Clock</Description><StartTime><Timestamp dt:dt=""int"">0</Timestamp><DateUtc dt:dt=""string"">2016-04-22T20:35:21Z</DateUtc></StartTime><FrequencyChanges><FrequencyChange><Frequency dt:dt=""r8"">2857431</Frequency><Timestamp dt:dt=""r8"">2077209034806</Timestamp><Current dt:dt=""r8"">0</Current><DateUtc dt:dt=""string"">2016-04-22T20:35:21Z</DateUtc></FrequencyChange></FrequencyChanges></Clock>\n",60.002,Native Japanese Speaker,-1554578449,4/22/2016,13:35:21,?? 8:35:21,female,4,Blockproc,SpeakerList,5,1,2,10,10,0,,-999999,37,567873,1,470,568343,SenarioProc,1,SenarioList,,,,2,2,20,2,10_2_cas.wav,10_2_pol.wav,10_2_cas.wav
PolitenessJapanese_Perception,9,1,20,"<?xml version=""1.0""?>\n<Clock xmlns:dt=""urn:schemas-microsoft-com:datatypes""><Description dt:dt=""string"">E-Prime Primary Realtime Clock</Description><StartTime><Timestamp dt:dt=""int"">0</Timestamp><DateUtc dt:dt=""string"">2016-04-22T20:35:21Z</DateUtc></StartTime><FrequencyChanges><FrequencyChange><Frequency dt:dt=""r8"">2857431</Frequency><Timestamp dt:dt=""r8"">2077209034806</Timestamp><Current dt:dt=""r8"">0</Current><DateUtc dt:dt=""string"">2016-04-22T20:35:21Z</DateUtc></FrequencyChange></FrequencyChanges></Clock>\n",60.002,Native Japanese Speaker,-1554578449,4/22/2016,13:35:21,?? 8:35:21,female,4,Blockproc,SpeakerList,5,1,2,10,11,0,,-999999,36,573123,1,660,573783,SoundProc,,SecondSenarioList,6,4,11,,,,6,10_6_cas.wav,10_6_pol.wav,
PolitenessJapanese_Perception,9,1,20,"<?xml version=""1.0""?>\n<Clock xmlns:dt=""urn:schemas-microsoft-com:datatypes""><Description dt:dt=""string"">E-Prime Primary Realtime Clock</Description><StartTime><Timestamp dt:dt=""int"">0</Timestamp><DateUtc dt:dt=""string"">2016-04-22T20:35:21Z</DateUtc></StartTime><FrequencyChanges><FrequencyChange><Frequency dt:dt=""r8"">2857431</Frequency><Timestamp dt:dt=""r8"">2077209034806</Timestamp><Current dt:dt=""r8"">0</Current><DateUtc dt:dt=""string"">2016-04-22T20:35:21Z</DateUtc></FrequencyChange></FrequencyChanges></Clock>\n",60.002,Native Japanese Speaker,-1554578449,4/22/2016,13:35:21,?? 8:35:21,female,4,Blockproc,SpeakerList,5,1,2,10,12,0,,-999999,37,578873,1,1110,579983,SoundProc,,SecondSenarioList,7,4,12,,,,7,10_7_pol.wav,10_7_cas.wav,
PolitenessJapanese_Perception,9,1,20,"<?xml version=""1.0""?>\n<Clock xmlns:dt=""urn:schemas-microsoft-com:datatypes""><Description dt:dt=""string"">E-Prime Primary Realtime Clock</Description><StartTime><Timestamp dt:dt=""int"">0</Timestamp><DateUtc dt:dt=""string"">2016-04-22T20:35:21Z</DateUtc></StartTime><FrequencyChanges><FrequencyChange><Frequency dt:dt=""r8"">2857431</Frequency><Timestamp dt:dt=""r8"">2077209034806</Timestamp><Current dt:dt=""r8"">0</Current><DateUtc dt:dt=""string"">2016-04-22T20:35:21Z</DateUtc></FrequencyChange></FrequencyChanges></Clock>\n",60.002,Native Japanese Speaker,-1554578449,4/22/2016,13:35:21,?? 8:35:21,female,4,Blockproc,SpeakerList,5,1,2,10,13,0,,-999999,35,585673,1,590,586263,SoundProc,,SecondSenarioList,3,4,13,,,,3,10_3_cas.wav,10_3_pol.wav,
PolitenessJapanese_Perception,9,1,20,"<?xml version=""1.0""?>\n<Clock xmlns:dt=""urn:schemas-microsoft-com:datatypes""><Description dt:dt=""string"">E-Prime Primary Realtime Clock</Description><StartTime><Timestamp dt:dt=""int"">0</Timestamp><DateUtc dt:dt=""string"">2016-04-22T20:35:21Z</DateUtc></StartTime><FrequencyChanges><FrequencyChange><Frequency dt:dt=""r8"">2857431</Frequency><Timestamp dt:dt=""r8"">2077209034806</Timestamp><Current dt:dt=""r8"">0</Current><DateUtc dt:dt=""string"">2016-04-22T20:35:21Z</DateUtc></FrequencyChange></FrequencyChanges></Clock>\n",60.002,Native Japanese Speaker,-1554578449,4/22/2016,13:35:21,?? 8:35:21,female,4,Blockproc,SpeakerList,5,1,2,10,14,0,,-999999,40,591506,1,541,592047,SoundProc,,SecondSenarioList,9,4,14,,,,9,10_9_cas.wav,10_9_pol.wav,
PolitenessJapanese_Perception,9,1,20,"<?xml version=""1.0""?>\n<Clock xmlns:dt=""urn:schemas-microsoft-com:datatypes""><Description dt:dt=""string"">E-Prime Primary Realtime Clock</Description><StartTime><Timestamp dt:dt=""int"">0</Timestamp><DateUtc dt:dt=""string"">2016-04-22T20:35:21Z</DateUtc></StartTime><FrequencyChanges><FrequencyChange><Frequency dt:dt=""r8"">2857431</Frequency><Timestamp dt:dt=""r8"">2077209034806</Timestamp><Current dt:dt=""r8"">0</Current><DateUtc dt:dt=""string"">2016-04-22T20:35:21Z</DateUtc></FrequencyChange></FrequencyChanges></Clock>\n",60.002,Native Japanese Speaker,-1554578449,4/22/2016,13:35:21,?? 8:35:21,female,4,Blockproc,SpeakerList,5,1,2,10,15,0,,-999999,38,597356,1,659,598015,SoundProc,,SecondSenarioList,1,4,15,,,,1,10_1_cas.wav,10_1_pol.wav,
PolitenessJapanese_Perception,9,1,20,"<?xml version=""1.0""?>\n<Clock xmlns:dt=""urn:schemas-microsoft-com:datatypes""><Description dt:dt=""string"">E-Prime Primary Realtime Clock</Description><StartTime><Timestamp dt:dt=""int"">0</Timestamp><DateUtc dt:dt=""string"">2016-04-22T20:35:21Z</DateUtc></StartTime><FrequencyChanges><FrequencyChange><Frequency dt:dt=""r8"">2857431</Frequency><Timestamp dt:dt=""r8"">2077209034806</Timestamp><Current dt:dt=""r8"">0</Current><DateUtc dt:dt=""string"">2016-04-22T20:35:21Z</DateUtc></FrequencyChange></FrequencyChanges></Clock>\n",60.002,Native Japanese Speaker,-1554578449,4/22/2016,13:35:21,?? 8:35:21,female,4,Blockproc,SpeakerList,5,1,2,10,16,0,,-999999,33,603989,1,458,604447,SoundProc,,SecondSenarioList,8,4,16,,,,8,10_8_pol.wav,10_8_cas.wav,
PolitenessJapanese_Perception,9,1,20,"<?xml version=""1.0""?>\n<Clock xmlns:dt=""urn:schemas-microsoft-com:datatypes""><Description dt:dt=""string"">E-Prime Primary Realtime Clock</Description><StartTime><Timestamp dt:dt=""int"">0</Timestamp><DateUtc dt:dt=""string"">2016-04-22T20:35:21Z</DateUtc></StartTime><FrequencyChanges><FrequencyChange><Frequency dt:dt=""r8"">2857431</Frequency><Timestamp dt:dt=""r8"">2077209034806</Timestamp><Current dt:dt=""r8"">0</Current><DateUtc dt:dt=""string"">2016-04-22T20:35:21Z</DateUtc></FrequencyChange></FrequencyChanges></Clock>\n",60.002,Native Japanese Speaker,-1554578449,4/22/2016,13:35:21,?? 8:35:21,female,4,Blockproc,SpeakerList,5,1,2,10,17,0,,-999999,39,610155,1,492,610647,SoundProc,,SecondSenarioList,5,4,17,,,,5,10_5_cas.wav,10_5_pol.wav,
PolitenessJapanese_Perception,9,1,20,"<?xml version=""1.0""?>\n<Clock xmlns:dt=""urn:schemas-microsoft-com:datatypes""><Description dt:dt=""string"">E-Prime Primary Realtime Clock</Description><StartTime><Timestamp dt:dt=""int"">0</Timestamp><DateUtc dt:dt=""string"">2016-04-22T20:35:21Z</DateUtc></StartTime><FrequencyChanges><FrequencyChange><Frequency dt:dt=""r8"">2857431</Frequency><Timestamp dt:dt=""r8"">2077209034806</Timestamp><Current dt:dt=""r8"">0</Current><DateUtc dt:dt=""string"">2016-04-22T20:35:21Z</DateUtc></FrequencyChange></FrequencyChanges></Clock>\n",60.002,Native Japanese Speaker,-1554578449,4/22/2016,13:35:21,?? 8:35:21,female,4,Blockproc,SpeakerList,5,1,2,10,18,0,,-999999,42,615738,1,637,616375,SoundProc,,SecondSenarioList,2,4,18,,,,2,10_2_pol.wav,10_2_cas.wav,
PolitenessJapanese_Perception,9,1,20,"<?xml version=""1.0""?>\n<Clock xmlns:dt=""urn:schemas-microsoft-com:datatypes""><Description dt:dt=""string"">E-Prime Primary Realtime Clock</Description><StartTime><Timestamp dt:dt=""int"">0</Timestamp><DateUtc dt:dt=""string"">2016-04-22T20:35:21Z</DateUtc></StartTime><FrequencyChanges><FrequencyChange><Frequency dt:dt=""r8"">2857431</Frequency><Timestamp dt:dt=""r8"">2077209034806</Timestamp><Current dt:dt=""r8"">0</Current><DateUtc dt:dt=""string"">2016-04-22T20:35:21Z</DateUtc></FrequencyChange></FrequencyChanges></Clock>\n",60.002,Native Japanese Speaker,-1554578449,4/22/2016,13:35:21,?? 8:35:21,female,4,Blockproc,SpeakerList,5,1,2,10,19,0,,-999999,39,623005,1,714,623719,SoundProc,,SecondSenarioList,4,4,19,,,,4,10_4_cas.wav,10_4_pol.wav,
PolitenessJapanese_Perception,9,1,20,"<?xml version=""1.0""?>\n<Clock xmlns:dt=""urn:schemas-microsoft-com:datatypes""><Description dt:dt=""string"">E-Prime Primary Realtime Clock</Description><StartTime><Timestamp dt:dt=""int"">0</Timestamp><DateUtc dt:dt=""string"">2016-04-22T20:35:21Z</DateUtc></StartTime><FrequencyChanges><FrequencyChange><Frequency dt:dt=""r8"">2857431</Frequency><Timestamp dt:dt=""r8"">2077209034806</Timestamp><Current dt:dt=""r8"">0</Current><DateUtc dt:dt=""string"">2016-04-22T20:35:21Z</DateUtc></FrequencyChange></FrequencyChanges></Clock>\n",60.002,Native Japanese Speaker,-1554578449,4/22/2016,13:35:21,?? 8:35:21,female,4,Blockproc,SpeakerList,5,1,2,10,20,0,,-999999,29,628805,1,330,629135,SoundProc,,SecondSenarioList,10,4,20,,,,10,10_10_pol.wav,10_10_cas.wav,
PolitenessJapanese_Perception,9,1,20,"<?xml version=""1.0""?>\n<Clock xmlns:dt=""urn:schemas-microsoft-com:datatypes""><Description dt:dt=""string"">E-Prime Primary Realtime Clock</Description><StartTime><Timestamp dt:dt=""int"">0</Timestamp><DateUtc dt:dt=""string"">2016-04-22T20:35:21Z</DateUtc></StartTime><FrequencyChanges><FrequencyChange><Frequency dt:dt=""r8"">2857431</Frequency><Timestamp dt:dt=""r8"">2077209034806</Timestamp><Current dt:dt=""r8"">0</Current><DateUtc dt:dt=""string"">2016-04-22T20:35:21Z</DateUtc></FrequencyChange></FrequencyChanges></Clock>\n",60.002,Native Japanese Speaker,-1554578449,4/22/2016,13:35:21,?? 8:35:21,female,5,Blockproc,SpeakerList,8,1,3,13,1,0,,-999999,28,637104,2,599,637703,SenarioProc,1,SenarioList,,,,3,3,21,3,13_3_cas.wav,13_3_pol.wav,13_3_cas.wav
PolitenessJapanese_Perception,9,1,20,"<?xml version=""1.0""?>\n<Clock xmlns:dt=""urn:schemas-microsoft-com:datatypes""><Description dt:dt=""string"">E-Prime Primary Realtime Clock</Description><StartTime><Timestamp dt:dt=""int"">0</Timestamp><DateUtc dt:dt=""string"">2016-04-22T20:35:21Z</DateUtc></StartTime><FrequencyChanges><FrequencyChange><Frequency dt:dt=""r8"">2857431</Frequency><Timestamp dt:dt=""r8"">2077209034806</Timestamp><Current dt:dt=""r8"">0</Current><DateUtc dt:dt=""string"">2016-04-22T20:35:21Z</DateUtc></FrequencyChange></FrequencyChanges></Clock>\n",60.002,Native Japanese Speaker,-1554578449,4/22/2016,13:35:21,?? 8:35:21,female,5,Blockproc,SpeakerList,8,1,3,13,2,0,,-999999,45,642421,1,498,642919,SenarioProc,2,SenarioList,,,,6,3,22,6,13_6_pol.wav,13_6_cas.wav,13_6_pol.wav
PolitenessJapanese_Perception,9,1,20,"<?xml version=""1.0""?>\n<Clock xmlns:dt=""urn:schemas-microsoft-com:datatypes""><Description dt:dt=""string"">E-Prime Primary Realtime Clock</Description><StartTime><Timestamp dt:dt=""int"">0</Timestamp><DateUtc dt:dt=""string"">2016-04-22T20:35:21Z</DateUtc></StartTime><FrequencyChanges><FrequencyChange><Frequency dt:dt=""r8"">2857431</Frequency><Timestamp dt:dt=""r8"">2077209034806</Timestamp><Current dt:dt=""r8"">0</Current><DateUtc dt:dt=""string"">2016-04-22T20:35:21Z</DateUtc></FrequencyChange></FrequencyChanges></Clock>\n",60.002,Native Japanese Speaker,-1554578449,4/22/2016,13:35:21,?? 8:35:21,female,5,Blockproc,SpeakerList,8,1,3,13,3,0,,-999999,41,649687,2,488,650175,SenarioProc,2,SenarioList,,,,4,3,23,4,13_4_pol.wav,13_4_cas.wav,13_4_pol.wav
PolitenessJapanese_Perception,9,1,20,"<?xml version=""1.0""?>\n<Clock xmlns:dt=""urn:schemas-microsoft-com:datatypes""><Description dt:dt=""string"">E-Prime Primary Realtime Clock</Description><StartTime><Timestamp dt:dt=""int"">0</Timestamp><DateUtc dt:dt=""string"">2016-04-22T20:35:21Z</DateUtc></StartTime><FrequencyChanges><FrequencyChange><Frequency dt:dt=""r8"">2857431</Frequency><Timestamp dt:dt=""r8"">2077209034806</Timestamp><Current dt:dt=""r8"">0</Current><DateUtc dt:dt=""string"">2016-04-22T20:35:21Z</DateUtc></FrequencyChange></FrequencyChanges></Clock>\n",60.002,Native Japanese Speaker,-1554578449,4/22/2016,13:35:21,?? 8:35:21,female,5,Blockproc,SpeakerList,8,1,3,13,4,0,,-999999,28,656354,2,269,656623,SenarioProc,1,SenarioList,,,,5,3,24,5,13_5_cas.wav,13_5_pol.wav,13_5_cas.wav
PolitenessJapanese_Perception,9,1,20,"<?xml version=""1.0""?>\n<Clock xmlns:dt=""urn:schemas-microsoft-com:datatypes""><Description dt:dt=""string"">E-Prime Primary Realtime Clock</Description><StartTime><Timestamp dt:dt=""int"">0</Timestamp><DateUtc dt:dt=""string"">2016-04-22T20:35:21Z</DateUtc></StartTime><FrequencyChanges><FrequencyChange><Frequency dt:dt=""r8"">2857431</Frequency><Timestamp dt:dt=""r8"">2077209034806</Timestamp><Current dt:dt=""r8"">0</Current><DateUtc dt:dt=""string"">2016-04-22T20:35:21Z</DateUtc></FrequencyChange></FrequencyChanges></Clock>\n",60.002,Native Japanese Speaker,-1554578449,4/22/2016,13:35:21,?? 8:35:21,female,5,Blockproc,SpeakerList,8,1,3,13,5,0,,-999999,38,661804,1,923,662727,SenarioProc,2,SenarioList,,,,1,3,25,1,13_1_pol.wav,13_1_cas.wav,13_1_pol.wav
PolitenessJapanese_Perception,9,1,20,"<?xml version=""1.0""?>\n<Clock xmlns:dt=""urn:schemas-microsoft-com:datatypes""><Description dt:dt=""string"">E-Prime Primary Realtime Clock</Description><StartTime><Timestamp dt:dt=""int"">0</Timestamp><DateUtc dt:dt=""string"">2016-04-22T20:35:21Z</DateUtc></StartTime><FrequencyChanges><FrequencyChange><Frequency dt:dt=""r8"">2857431</Frequency><Timestamp dt:dt=""r8"">2077209034806</Timestamp><Current dt:dt=""r8"">0</Current><DateUtc dt:dt=""string"">2016-04-22T20:35:21Z</DateUtc></FrequencyChange></FrequencyChanges></Clock>\n",60.002,Native Japanese Speaker,-1554578449,4/22/2016,13:35:21,?? 8:35:21,female,5,Blockproc,SpeakerList,8,1,3,13,6,0,,-999999,44,667970,2,613,668583,SenarioProc,2,SenarioList,,,,7,3,26,7,13_7_pol.wav,13_7_cas.wav,13_7_pol.wav
PolitenessJapanese_Perception,9,1,20,"<?xml version=""1.0""?>\n<Clock xmlns:dt=""urn:schemas-microsoft-com:datatypes""><Description dt:dt=""string"">E-Prime Primary Realtime Clock</Description><StartTime><Timestamp dt:dt=""int"">0</Timestamp><DateUtc dt:dt=""string"">2016-04-22T20:35:21Z</DateUtc></StartTime><FrequencyChanges><FrequencyChange><Frequency dt:dt=""r8"">2857431</Frequency><Timestamp dt:dt=""r8"">2077209034806</Timestamp><Current dt:dt=""r8"">0</Current><DateUtc dt:dt=""string"">2016-04-22T20:35:21Z</DateUtc></FrequencyChange></FrequencyChanges></Clock>\n",60.002,Native Japanese Speaker,-1554578449,4/22/2016,13:35:21,?? 8:35:21,female,5,Blockproc,SpeakerList,8,1,3,13,7,0,,-999999,27,673903,1,335,674238,SenarioProc,2,SenarioList,,,,10,3,27,10,13_10_pol.wav,13_10_cas.wav,13_10_pol.wav
PolitenessJapanese_Perception,9,1,20,"<?xml version=""1.0""?>\n<Clock xmlns:dt=""urn:schemas-microsoft-com:datatypes""><Description dt:dt=""string"">E-Prime Primary Realtime Clock</Description><StartTime><Timestamp dt:dt=""int"">0</Timestamp><DateUtc dt:dt=""string"">2016-04-22T20:35:21Z</DateUtc></StartTime><FrequencyChanges><FrequencyChange><Frequency dt:dt=""r8"">2857431</Frequency><Timestamp dt:dt=""r8"">2077209034806</Timestamp><Current dt:dt=""r8"">0</Current><DateUtc dt:dt=""string"">2016-04-22T20:35:21Z</DateUtc></FrequencyChange></FrequencyChanges></Clock>\n",60.002,Native Japanese Speaker,-1554578449,4/22/2016,13:35:21,?? 8:35:21,female,5,Blockproc,SpeakerList,8,1,3,13,8,0,,-999999,41,679486,1,584,680070,SenarioProc,2,SenarioList,,,,2,3,28,2,13_2_pol.wav,13_2_cas.wav,13_2_pol.wav
PolitenessJapanese_Perception,9,1,20,"<?xml version=""1.0""?>\n<Clock xmlns:dt=""urn:schemas-microsoft-com:datatypes""><Description dt:dt=""string"">E-Prime Primary Realtime Clock</Description><StartTime><Timestamp dt:dt=""int"">0</Timestamp><DateUtc dt:dt=""string"">2016-04-22T20:35:21Z</DateUtc></StartTime><FrequencyChanges><FrequencyChange><Frequency dt:dt=""r8"">2857431</Frequency><Timestamp dt:dt=""r8"">2077209034806</Timestamp><Current dt:dt=""r8"">0</Current><DateUtc dt:dt=""string"">2016-04-22T20:35:21Z</DateUtc></FrequencyChange></FrequencyChanges></Clock>\n",60.002,Native Japanese Speaker,-1554578449,4/22/2016,13:35:21,?? 8:35:21,female,5,Blockproc,SpeakerList,8,1,3,13,9,0,,-999999,37,686203,1,747,686950,SenarioProc,2,SenarioList,,,,8,3,29,8,13_8_pol.wav,13_8_cas.wav,13_8_pol.wav
PolitenessJapanese_Perception,9,1,20,"<?xml version=""1.0""?>\n<Clock xmlns:dt=""urn:schemas-microsoft-com:datatypes""><Description dt:dt=""string"">E-Prime Primary Realtime Clock</Description><StartTime><Timestamp dt:dt=""int"">0</Timestamp><DateUtc dt:dt=""string"">2016-04-22T20:35:21Z</DateUtc></StartTime><FrequencyChanges><FrequencyChange><Frequency dt:dt=""r8"">2857431</Frequency><Timestamp dt:dt=""r8"">2077209034806</Timestamp><Current dt:dt=""r8"">0</Current><DateUtc dt:dt=""string"">2016-04-22T20:35:21Z</DateUtc></FrequencyChange></FrequencyChanges></Clock>\n",60.002,Native Japanese Speaker,-1554578449,4/22/2016,13:35:21,?? 8:35:21,female,5,Blockproc,SpeakerList,8,1,3,13,10,0,,-999999,38,692503,1,456,692959,SenarioProc,2,SenarioList,,,,9,3,30,9,13_9_pol.wav,13_9_cas.wav,13_9_pol.wav
PolitenessJapanese_Perception,9,1,20,"<?xml version=""1.0""?>\n<Clock xmlns:dt=""urn:schemas-microsoft-com:datatypes""><Description dt:dt=""string"">E-Prime Primary Realtime Clock</Description><StartTime><Timestamp dt:dt=""int"">0</Timestamp><DateUtc dt:dt=""string"">2016-04-22T20:35:21Z</DateUtc></StartTime><FrequencyChanges><FrequencyChange><Frequency dt:dt=""r8"">2857431</Frequency><Timestamp dt:dt=""r8"">2077209034806</Timestamp><Current dt:dt=""r8"">0</Current><DateUtc dt:dt=""string"">2016-04-22T20:35:21Z</DateUtc></FrequencyChange></FrequencyChanges></Clock>\n",60.002,Native Japanese Speaker,-1554578449,4/22/2016,13:35:21,?? 8:35:21,female,5,Blockproc,SpeakerList,8,1,3,13,11,0,,-999999,41,698286,2,432,698718,SoundProc,,SecondSenarioList,10,6,21,,,,10,13_10_cas.wav,13_10_pol.wav,
PolitenessJapanese_Perception,9,1,20,"<?xml version=""1.0""?>\n<Clock xmlns:dt=""urn:schemas-microsoft-com:datatypes""><Description dt:dt=""string"">E-Prime Primary Realtime Clock</Description><StartTime><Timestamp dt:dt=""int"">0</Timestamp><DateUtc dt:dt=""string"">2016-04-22T20:35:21Z</DateUtc></StartTime><FrequencyChanges><FrequencyChange><Frequency dt:dt=""r8"">2857431</Frequency><Timestamp dt:dt=""r8"">2077209034806</Timestamp><Current dt:dt=""r8"">0</Current><DateUtc dt:dt=""string"">2016-04-22T20:35:21Z</DateUtc></FrequencyChange></FrequencyChanges></Clock>\n",60.002,Native Japanese Speaker,-1554578449,4/22/2016,13:35:21,?? 8:35:21,female,5,Blockproc,SpeakerList,8,1,3,13,12,0,,-999999,37,704852,2,258,705110,SoundProc,,SecondSenarioList,8,6,22,,,,8,13_8_cas.wav,13_8_pol.wav,
PolitenessJapanese_Perception,9,1,20,"<?xml version=""1.0""?>\n<Clock xmlns:dt=""urn:schemas-microsoft-com:datatypes""><Description dt:dt=""string"">E-Prime Primary Realtime Clock</Description><StartTime><Timestamp dt:dt=""int"">0</Timestamp><DateUtc dt:dt=""string"">2016-04-22T20:35:21Z</DateUtc></StartTime><FrequencyChanges><FrequencyChange><Frequency dt:dt=""r8"">2857431</Frequency><Timestamp dt:dt=""r8"">2077209034806</Timestamp><Current dt:dt=""r8"">0</Current><DateUtc dt:dt=""string"">2016-04-22T20:35:21Z</DateUtc></FrequencyChange></FrequencyChanges></Clock>\n",60.002,Native Japanese Speaker,-1554578449,4/22/2016,13:35:21,?? 8:35:21,female,5,Blockproc,SpeakerList,8,1,3,13,13,0,,-999999,40,710335,2,591,710926,SoundProc,,SecondSenarioList,2,6,23,,,,2,13_2_cas.wav,13_2_pol.wav,
PolitenessJapanese_Perception,9,1,20,"<?xml version=""1.0""?>\n<Clock xmlns:dt=""urn:schemas-microsoft-com:datatypes""><Description dt:dt=""string"">E-Prime Primary Realtime Clock</Description><StartTime><Timestamp dt:dt=""int"">0</Timestamp><DateUtc dt:dt=""string"">2016-04-22T20:35:21Z</DateUtc></StartTime><FrequencyChanges><FrequencyChange><Frequency dt:dt=""r8"">2857431</Frequency><Timestamp dt:dt=""r8"">2077209034806</Timestamp><Current dt:dt=""r8"">0</Current><DateUtc dt:dt=""string"">2016-04-22T20:35:21Z</DateUtc></FrequencyChange></FrequencyChanges></Clock>\n",60.002,Native Japanese Speaker,-1554578449,4/22/2016,13:35:21,?? 8:35:21,female,5,Blockproc,SpeakerList,8,1,3,13,14,0,,-999999,40,715635,2,843,716478,SoundProc,,SecondSenarioList,6,6,24,,,,6,13_6_cas.wav,13_6_pol.wav,
PolitenessJapanese_Perception,9,1,20,"<?xml version=""1.0""?>\n<Clock xmlns:dt=""urn:schemas-microsoft-com:datatypes""><Description dt:dt=""string"">E-Prime Primary Realtime Clock</Description><StartTime><Timestamp dt:dt=""int"">0</Timestamp><DateUtc dt:dt=""string"">2016-04-22T20:35:21Z</DateUtc></StartTime><FrequencyChanges><FrequencyChange><Frequency dt:dt=""r8"">2857431</Frequency><Timestamp dt:dt=""r8"">2077209034806</Timestamp><Current dt:dt=""r8"">0</Current><DateUtc dt:dt=""string"">2016-04-22T20:35:21Z</DateUtc></FrequencyChange></FrequencyChanges></Clock>\n",60.002,Native Japanese Speaker,-1554578449,4/22/2016,13:35:21,?? 8:35:21,female,5,Blockproc,SpeakerList,8,1,3,13,15,0,,-999999,33,722618,2,732,723350,SoundProc,,SecondSenarioList,5,6,25,,,,5,13_5_pol.wav,13_5_cas.wav,
PolitenessJapanese_Perception,9,1,20,"<?xml version=""1.0""?>\n<Clock xmlns:dt=""urn:schemas-microsoft-com:datatypes""><Description dt:dt=""string"">E-Prime Primary Realtime Clock</Description><StartTime><Timestamp dt:dt=""int"">0</Timestamp><DateUtc dt:dt=""string"">2016-04-22T20:35:21Z</DateUtc></StartTime><FrequencyChanges><FrequencyChange><Frequency dt:dt=""r8"">2857431</Frequency><Timestamp dt:dt=""r8"">2077209034806</Timestamp><Current dt:dt=""r8"">0</Current><DateUtc dt:dt=""string"">2016-04-22T20:35:21Z</DateUtc></FrequencyChange></FrequencyChanges></Clock>\n",60.002,Native Japanese Speaker,-1554578449,4/22/2016,13:35:21,?? 8:35:21,female,5,Blockproc,SpeakerList,8,1,3,13,16,0,,-999999,40,730085,1,417,730502,SoundProc,,SecondSenarioList,4,6,26,,,,4,13_4_cas.wav,13_4_pol.wav,
PolitenessJapanese_Perception,9,1,20,"<?xml version=""1.0""?>\n<Clock xmlns:dt=""urn:schemas-microsoft-com:datatypes""><Description dt:dt=""string"">E-Prime Primary Realtime Clock</Description><StartTime><Timestamp dt:dt=""int"">0</Timestamp><DateUtc dt:dt=""string"">2016-04-22T20:35:21Z</DateUtc></StartTime><FrequencyChanges><FrequencyChange><Frequency dt:dt=""r8"">2857431</Frequency><Timestamp dt:dt=""r8"">2077209034806</Timestamp><Current dt:dt=""r8"">0</Current><DateUtc dt:dt=""string"">2016-04-22T20:35:21Z</DateUtc></FrequencyChange></FrequencyChanges></Clock>\n",60.002,Native Japanese Speaker,-1554578449,4/22/2016,13:35:21,?? 8:35:21,female,5,Blockproc,SpeakerList,8,1,3,13,17,0,,-999999,30,736235,1,627,736862,SoundProc,,SecondSenarioList,3,6,27,,,,3,13_3_pol.wav,13_3_cas.wav,
PolitenessJapanese_Perception,9,1,20,"<?xml version=""1.0""?>\n<Clock xmlns:dt=""urn:schemas-microsoft-com:datatypes""><Description dt:dt=""string"">E-Prime Primary Realtime Clock</Description><StartTime><Timestamp dt:dt=""int"">0</Timestamp><DateUtc dt:dt=""string"">2016-04-22T20:35:21Z</DateUtc></StartTime><FrequencyChanges><FrequencyChange><Frequency dt:dt=""r8"">2857431</Frequency><Timestamp dt:dt=""r8"">2077209034806</Timestamp><Current dt:dt=""r8"">0</Current><DateUtc dt:dt=""string"">2016-04-22T20:35:21Z</DateUtc></FrequencyChange></FrequencyChanges></Clock>\n",60.002,Native Japanese Speaker,-1554578449,4/22/2016,13:35:21,?? 8:35:21,female,5,Blockproc,SpeakerList,8,1,3,13,18,0,,-999999,36,742051,1,435,742486,SoundProc,,SecondSenarioList,7,6,28,,,,7,13_7_cas.wav,13_7_pol.wav,
PolitenessJapanese_Perception,9,1,20,"<?xml version=""1.0""?>\n<Clock xmlns:dt=""urn:schemas-microsoft-com:datatypes""><Description dt:dt=""string"">E-Prime Primary Realtime Clock</Description><StartTime><Timestamp dt:dt=""int"">0</Timestamp><DateUtc dt:dt=""string"">2016-04-22T20:35:21Z</DateUtc></StartTime><FrequencyChanges><FrequencyChange><Frequency dt:dt=""r8"">2857431</Frequency><Timestamp dt:dt=""r8"">2077209034806</Timestamp><Current dt:dt=""r8"">0</Current><DateUtc dt:dt=""string"">2016-04-22T20:35:21Z</DateUtc></FrequencyChange></FrequencyChanges></Clock>\n",60.002,Native Japanese Speaker,-1554578449,4/22/2016,13:35:21,?? 8:35:21,female,5,Blockproc,SpeakerList,8,1,3,13,19,0,,-999999,36,747651,2,499,748150,SoundProc,,SecondSenarioList,1,6,29,,,,1,13_1_cas.wav,13_1_pol.wav,
PolitenessJapanese_Perception,9,1,20,"<?xml version=""1.0""?>\n<Clock xmlns:dt=""urn:schemas-microsoft-com:datatypes""><Description dt:dt=""string"">E-Prime Primary Realtime Clock</Description><StartTime><Timestamp dt:dt=""int"">0</Timestamp><DateUtc dt:dt=""string"">2016-04-22T20:35:21Z</DateUtc></StartTime><FrequencyChanges><FrequencyChange><Frequency dt:dt=""r8"">2857431</Frequency><Timestamp dt:dt=""r8"">2077209034806</Timestamp><Current dt:dt=""r8"">0</Current><DateUtc dt:dt=""string"">2016-04-22T20:35:21Z</DateUtc></FrequencyChange></FrequencyChanges></Clock>\n",60.002,Native Japanese Speaker,-1554578449,4/22/2016,13:35:21,?? 8:35:21,female,5,Blockproc,SpeakerList,8,1,3,13,20,0,,-999999,31,753667,2,483,754150,SoundProc,,SecondSenarioList,9,6,30,,,,9,13_9_cas.wav,13_9_pol.wav,
PolitenessJapanese_Perception,9,1,20,"<?xml version=""1.0""?>\n<Clock xmlns:dt=""urn:schemas-microsoft-com:datatypes""><Description dt:dt=""string"">E-Prime Primary Realtime Clock</Description><StartTime><Timestamp dt:dt=""int"">0</Timestamp><DateUtc dt:dt=""string"">2016-04-22T20:35:21Z</DateUtc></StartTime><FrequencyChanges><FrequencyChange><Frequency dt:dt=""r8"">2857431</Frequency><Timestamp dt:dt=""r8"">2077209034806</Timestamp><Current dt:dt=""r8"">0</Current><DateUtc dt:dt=""string"">2016-04-22T20:35:21Z</DateUtc></FrequencyChange></FrequencyChanges></Clock>\n",60.002,Native Japanese Speaker,-1554578449,4/22/2016,13:35:21,?? 8:35:21,female,6,Blockproc,SpeakerList,1,1,4,1,1,0,,-999999,29,762634,1,996,763630,SenarioProc,2,SenarioList,,,,8,4,31,8,1_8_pol.wav,1_8_cas.wav,1_8_pol.wav
PolitenessJapanese_Perception,9,1,20,"<?xml version=""1.0""?>\n<Clock xmlns:dt=""urn:schemas-microsoft-com:datatypes""><Description dt:dt=""string"">E-Prime Primary Realtime Clock</Description><StartTime><Timestamp dt:dt=""int"">0</Timestamp><DateUtc dt:dt=""string"">2016-04-22T20:35:21Z</DateUtc></StartTime><FrequencyChanges><FrequencyChange><Frequency dt:dt=""r8"">2857431</Frequency><Timestamp dt:dt=""r8"">2077209034806</Timestamp><Current dt:dt=""r8"">0</Current><DateUtc dt:dt=""string"">2016-04-22T20:35:21Z</DateUtc></FrequencyChange></FrequencyChanges></Clock>\n",60.002,Native Japanese Speaker,-1554578449,4/22/2016,13:35:21,?? 8:35:21,female,6,Blockproc,SpeakerList,1,1,4,1,2,0,,-999999,38,768633,1,837,769470,SenarioProc,2,SenarioList,,,,9,4,32,9,1_9_pol.wav,1_9_cas.wav,1_9_pol.wav
PolitenessJapanese_Perception,9,1,20,"<?xml version=""1.0""?>\n<Clock xmlns:dt=""urn:schemas-microsoft-com:datatypes""><Description dt:dt=""string"">E-Prime Primary Realtime Clock</Description><StartTime><Timestamp dt:dt=""int"">0</Timestamp><DateUtc dt:dt=""string"">2016-04-22T20:35:21Z</DateUtc></StartTime><FrequencyChanges><FrequencyChange><Frequency dt:dt=""r8"">2857431</Frequency><Timestamp dt:dt=""r8"">2077209034806</Timestamp><Current dt:dt=""r8"">0</Current><DateUtc dt:dt=""string"">2016-04-22T20:35:21Z</DateUtc></FrequencyChange></FrequencyChanges></Clock>\n",60.002,Native Japanese Speaker,-1554578449,4/22/2016,13:35:21,?? 8:35:21,female,6,Blockproc,SpeakerList,1,1,4,1,3,0,,-999999,37,774784,2,382,775166,SenarioProc,1,SenarioList,,,,10,4,33,10,1_10_cas.wav,1_10_pol.wav,1_10_cas.wav
PolitenessJapanese_Perception,9,1,20,"<?xml version=""1.0""?>\n<Clock xmlns:dt=""urn:schemas-microsoft-com:datatypes""><Description dt:dt=""string"">E-Prime Primary Realtime Clock</Description><StartTime><Timestamp dt:dt=""int"">0</Timestamp><DateUtc dt:dt=""string"">2016-04-22T20:35:21Z</DateUtc></StartTime><FrequencyChanges><FrequencyChange><Frequency dt:dt=""r8"">2857431</Frequency><Timestamp dt:dt=""r8"">2077209034806</Timestamp><Current dt:dt=""r8"">0</Current><DateUtc dt:dt=""string"">2016-04-22T20:35:21Z</DateUtc></FrequencyChange></FrequencyChanges></Clock>\n",60.002,Native Japanese Speaker,-1554578449,4/22/2016,13:35:21,?? 8:35:21,female,6,Blockproc,SpeakerList,1,1,4,1,4,0,,-999999,32,780316,1,521,780837,SenarioProc,2,SenarioList,,,,1,4,34,1,1_1_pol.wav,1_1_cas.wav,1_1_pol.wav
PolitenessJapanese_Perception,9,1,20,"<?xml version=""1.0""?>\n<Clock xmlns:dt=""urn:schemas-microsoft-com:datatypes""><Description dt:dt=""string"">E-Prime Primary Realtime Clock</Description><StartTime><Timestamp dt:dt=""int"">0</Timestamp><DateUtc dt:dt=""string"">2016-04-22T20:35:21Z</DateUtc></StartTime><FrequencyChanges><FrequencyChange><Frequency dt:dt=""r8"">2857431</Frequency><Timestamp dt:dt=""r8"">2077209034806</Timestamp><Current dt:dt=""r8"">0</Current><DateUtc dt:dt=""string"">2016-04-22T20:35:21Z</DateUtc></FrequencyChange></FrequencyChanges></Clock>\n",60.002,Native Japanese Speaker,-1554578449,4/22/2016,13:35:21,?? 8:35:21,female,6,Blockproc,SpeakerList,1,1,4,1,5,0,,-999999,39,785833,2,324,786157,SenarioProc,2,SenarioList,,,,2,4,35,2,1_2_pol.wav,1_2_cas.wav,1_2_pol.wav
PolitenessJapanese_Perception,9,1,20,"<?xml version=""1.0""?>\n<Clock xmlns:dt=""urn:schemas-microsoft-com:datatypes""><Description dt:dt=""string"">E-Prime Primary Realtime Clock</Description><StartTime><Timestamp dt:dt=""int"">0</Timestamp><DateUtc dt:dt=""string"">2016-04-22T20:35:21Z</DateUtc></StartTime><FrequencyChanges><FrequencyChange><Frequency dt:dt=""r8"">2857431</Frequency><Timestamp dt:dt=""r8"">2077209034806</Timestamp><Current dt:dt=""r8"">0</Current><DateUtc dt:dt=""string"">2016-04-22T20:35:21Z</DateUtc></FrequencyChange></FrequencyChanges></Clock>\n",60.002,Native Japanese Speaker,-1554578449,4/22/2016,13:35:21,?? 8:35:21,female,6,Blockproc,SpeakerList,1,1,4,1,6,0,,-999999,29,791083,1,562,791645,SenarioProc,2,SenarioList,,,,7,4,36,7,1_7_pol.wav,1_7_cas.wav,1_7_pol.wav
PolitenessJapanese_Perception,9,1,20,"<?xml version=""1.0""?>\n<Clock xmlns:dt=""urn:schemas-microsoft-com:datatypes""><Description dt:dt=""string"">E-Prime Primary Realtime Clock</Description><StartTime><Timestamp dt:dt=""int"">0</Timestamp><DateUtc dt:dt=""string"">2016-04-22T20:35:21Z</DateUtc></StartTime><FrequencyChanges><FrequencyChange><Frequency dt:dt=""r8"">2857431</Frequency><Timestamp dt:dt=""r8"">2077209034806</Timestamp><Current dt:dt=""r8"">0</Current><DateUtc dt:dt=""string"">2016-04-22T20:35:21Z</DateUtc></FrequencyChange></FrequencyChanges></Clock>\n",60.002,Native Japanese Speaker,-1554578449,4/22/2016,13:35:21,?? 8:35:21,female,6,Blockproc,SpeakerList,1,1,4,1,7,0,,-999999,35,797449,1,388,797837,SenarioProc,2,SenarioList,,,,3,4,37,3,1_3_pol.wav,1_3_cas.wav,1_3_pol.wav
PolitenessJapanese_Perception,9,1,20,"<?xml version=""1.0""?>\n<Clock xmlns:dt=""urn:schemas-microsoft-com:datatypes""><Description dt:dt=""string"">E-Prime Primary Realtime Clock</Description><StartTime><Timestamp dt:dt=""int"">0</Timestamp><DateUtc dt:dt=""string"">2016-04-22T20:35:21Z</DateUtc></StartTime><FrequencyChanges><FrequencyChange><Frequency dt:dt=""r8"">2857431</Frequency><Timestamp dt:dt=""r8"">2077209034806</Timestamp><Current dt:dt=""r8"">0</Current><DateUtc dt:dt=""string"">2016-04-22T20:35:21Z</DateUtc></FrequencyChange></FrequencyChanges></Clock>\n",60.002,Native Japanese Speaker,-1554578449,4/22/2016,13:35:21,?? 8:35:21,female,6,Blockproc,SpeakerList,1,1,4,1,8,0,,-999999,28,802732,1,241,802973,SenarioProc,2,SenarioList,,,,6,4,38,6,1_6_pol.wav,1_6_cas.wav,1_6_pol.wav
PolitenessJapanese_Perception,9,1,20,"<?xml version=""1.0""?>\n<Clock xmlns:dt=""urn:schemas-microsoft-com:datatypes""><Description dt:dt=""string"">E-Prime Primary Realtime Clock</Description><StartTime><Timestamp dt:dt=""int"">0</Timestamp><DateUtc dt:dt=""string"">2016-04-22T20:35:21Z</DateUtc></StartTime><FrequencyChanges><FrequencyChange><Frequency dt:dt=""r8"">2857431</Frequency><Timestamp dt:dt=""r8"">2077209034806</Timestamp><Current dt:dt=""r8"">0</Current><DateUtc dt:dt=""string"">2016-04-22T20:35:21Z</DateUtc></FrequencyChange></FrequencyChanges></Clock>\n",60.002,Native Japanese Speaker,-1554578449,4/22/2016,13:35:21,?? 8:35:21,female,6,Blockproc,SpeakerList,1,1,4,1,9,0,,-999999,38,809332,2,401,809733,SenarioProc,2,SenarioList,,,,4,4,39,4,1_4_pol.wav,1_4_cas.wav,1_4_pol.wav
PolitenessJapanese_Perception,9,1,20,"<?xml version=""1.0""?>\n<Clock xmlns:dt=""urn:schemas-microsoft-com:datatypes""><Description dt:dt=""string"">E-Prime Primary Realtime Clock</Description><StartTime><Timestamp dt:dt=""int"">0</Timestamp><DateUtc dt:dt=""string"">2016-04-22T20:35:21Z</DateUtc></StartTime><FrequencyChanges><FrequencyChange><Frequency dt:dt=""r8"">2857431</Frequency><Timestamp dt:dt=""r8"">2077209034806</Timestamp><Current dt:dt=""r8"">0</Current><DateUtc dt:dt=""string"">2016-04-22T20:35:21Z</DateUtc></FrequencyChange></FrequencyChanges></Clock>\n",60.002,Native Japanese Speaker,-1554578449,4/22/2016,13:35:21,?? 8:35:21,female,6,Blockproc,SpeakerList,1,1,4,1,10,0,,-999999,28,815432,1,421,815853,SenarioProc,2,SenarioList,,,,5,4,40,5,1_5_pol.wav,1_5_cas.wav,1_5_pol.wav
PolitenessJapanese_Perception,9,1,20,"<?xml version=""1.0""?>\n<Clock xmlns:dt=""urn:schemas-microsoft-com:datatypes""><Description dt:dt=""string"">E-Prime Primary Realtime Clock</Description><StartTime><Timestamp dt:dt=""int"">0</Timestamp><DateUtc dt:dt=""string"">2016-04-22T20:35:21Z</DateUtc></StartTime><FrequencyChanges><FrequencyChange><Frequency dt:dt=""r8"">2857431</Frequency><Timestamp dt:dt=""r8"">2077209034806</Timestamp><Current dt:dt=""r8"">0</Current><DateUtc dt:dt=""string"">2016-04-22T20:35:21Z</DateUtc></FrequencyChange></FrequencyChanges></Clock>\n",60.002,Native Japanese Speaker,-1554578449,4/22/2016,13:35:21,?? 8:35:21,female,6,Blockproc,SpeakerList,1,1,4,1,11,0,,-999999,41,820865,2,724,821589,SoundProc,,SecondSenarioList,2,8,31,,,,2,1_2_cas.wav,1_2_pol.wav,
PolitenessJapanese_Perception,9,1,20,"<?xml version=""1.0""?>\n<Clock xmlns:dt=""urn:schemas-microsoft-com:datatypes""><Description dt:dt=""string"">E-Prime Primary Realtime Clock</Description><StartTime><Timestamp dt:dt=""int"">0</Timestamp><DateUtc dt:dt=""string"">2016-04-22T20:35:21Z</DateUtc></StartTime><FrequencyChanges><FrequencyChange><Frequency dt:dt=""r8"">2857431</Frequency><Timestamp dt:dt=""r8"">2077209034806</Timestamp><Current dt:dt=""r8"">0</Current><DateUtc dt:dt=""string"">2016-04-22T20:35:21Z</DateUtc></FrequencyChange></FrequencyChanges></Clock>\n",60.002,Native Japanese Speaker,-1554578449,4/22/2016,13:35:21,?? 8:35:21,female,6,Blockproc,SpeakerList,1,1,4,1,12,0,,-999999,30,827315,2,1386,828701,SoundProc,,SecondSenarioList,5,8,32,,,,5,1_5_cas.wav,1_5_pol.wav,
PolitenessJapanese_Perception,9,1,20,"<?xml version=""1.0""?>\n<Clock xmlns:dt=""urn:schemas-microsoft-com:datatypes""><Description dt:dt=""string"">E-Prime Primary Realtime Clock</Description><StartTime><Timestamp dt:dt=""int"">0</Timestamp><DateUtc dt:dt=""string"">2016-04-22T20:35:21Z</DateUtc></StartTime><FrequencyChanges><FrequencyChange><Frequency dt:dt=""r8"">2857431</Frequency><Timestamp dt:dt=""r8"">2077209034806</Timestamp><Current dt:dt=""r8"">0</Current><DateUtc dt:dt=""string"">2016-04-22T20:35:21Z</DateUtc></FrequencyChange></FrequencyChanges></Clock>\n",60.002,Native Japanese Speaker,-1554578449,4/22/2016,13:35:21,?? 8:35:21,female,6,Blockproc,SpeakerList,1,1,4,1,13,0,,-999999,41,833565,2,432,833997,SoundProc,,SecondSenarioList,6,8,33,,,,6,1_6_cas.wav,1_6_pol.wav,
PolitenessJapanese_Perception,9,1,20,"<?xml version=""1.0""?>\n<Clock xmlns:dt=""urn:schemas-microsoft-com:datatypes""><Description dt:dt=""string"">E-Prime Primary Realtime Clock</Description><StartTime><Timestamp dt:dt=""int"">0</Timestamp><DateUtc dt:dt=""string"">2016-04-22T20:35:21Z</DateUtc></StartTime><FrequencyChanges><FrequencyChange><Frequency dt:dt=""r8"">2857431</Frequency><Timestamp dt:dt=""r8"">2077209034806</Timestamp><Current dt:dt=""r8"">0</Current><DateUtc dt:dt=""string"">2016-04-22T20:35:21Z</DateUtc></FrequencyChange></FrequencyChanges></Clock>\n",60.002,Native Japanese Speaker,-1554578449,4/22/2016,13:35:21,?? 8:35:21,female,6,Blockproc,SpeakerList,1,1,4,1,14,0,,-999999,40,839764,2,601,840365,SoundProc,,SecondSenarioList,3,8,34,,,,3,1_3_cas.wav,1_3_pol.wav,
PolitenessJapanese_Perception,9,1,20,"<?xml version=""1.0""?>\n<Clock xmlns:dt=""urn:schemas-microsoft-com:datatypes""><Description dt:dt=""string"">E-Prime Primary Realtime Clock</Description><StartTime><Timestamp dt:dt=""int"">0</Timestamp><DateUtc dt:dt=""string"">2016-04-22T20:35:21Z</DateUtc></StartTime><FrequencyChanges><FrequencyChange><Frequency dt:dt=""r8"">2857431</Frequency><Timestamp dt:dt=""r8"">2077209034806</Timestamp><Current dt:dt=""r8"">0</Current><DateUtc dt:dt=""string"">2016-04-22T20:35:21Z</DateUtc></FrequencyChange></FrequencyChanges></Clock>\n",60.002,Native Japanese Speaker,-1554578449,4/22/2016,13:35:21,?? 8:35:21,female,6,Blockproc,SpeakerList,1,1,4,1,15,0,,-999999,37,845531,1,442,845973,SoundProc,,SecondSenarioList,1,8,35,,,,1,1_1_cas.wav,1_1_pol.wav,
PolitenessJapanese_Perception,9,1,20,"<?xml version=""1.0""?>\n<Clock xmlns:dt=""urn:schemas-microsoft-com:datatypes""><Description dt:dt=""string"">E-Prime Primary Realtime Clock</Description><StartTime><Timestamp dt:dt=""int"">0</Timestamp><DateUtc dt:dt=""string"">2016-04-22T20:35:21Z</DateUtc></StartTime><FrequencyChanges><FrequencyChange><Frequency dt:dt=""r8"">2857431</Frequency><Timestamp dt:dt=""r8"">2077209034806</Timestamp><Current dt:dt=""r8"">0</Current><DateUtc dt:dt=""string"">2016-04-22T20:35:21Z</DateUtc></FrequencyChange></FrequencyChanges></Clock>\n",60.002,Native Japanese Speaker,-1554578449,4/22/2016,13:35:21,?? 8:35:21,female,6,Blockproc,SpeakerList,1,1,4,1,16,0,,-999999,37,851281,2,396,851677,SoundProc,,SecondSenarioList,10,8,36,,,,10,1_10_pol.wav,1_10_cas.wav,
PolitenessJapanese_Perception,9,1,20,"<?xml version=""1.0""?>\n<Clock xmlns:dt=""urn:schemas-microsoft-com:datatypes""><Description dt:dt=""string"">E-Prime Primary Realtime Clock</Description><StartTime><Timestamp dt:dt=""int"">0</Timestamp><DateUtc dt:dt=""string"">2016-04-22T20:35:21Z</DateUtc></StartTime><FrequencyChanges><FrequencyChange><Frequency dt:dt=""r8"">2857431</Frequency><Timestamp dt:dt=""r8"">2077209034806</Timestamp><Current dt:dt=""r8"">0</Current><DateUtc dt:dt=""string"">2016-04-22T20:35:21Z</DateUtc></FrequencyChange></FrequencyChanges></Clock>\n",60.002,Native Japanese Speaker,-1554578449,4/22/2016,13:35:21,?? 8:35:21,female,6,Blockproc,SpeakerList,1,1,4,1,17,0,,-999999,30,857464,2,429,857893,SoundProc,,SecondSenarioList,8,8,37,,,,8,1_8_cas.wav,1_8_pol.wav,
PolitenessJapanese_Perception,9,1,20,"<?xml version=""1.0""?>\n<Clock xmlns:dt=""urn:schemas-microsoft-com:datatypes""><Description dt:dt=""string"">E-Prime Primary Realtime Clock</Description><StartTime><Timestamp dt:dt=""int"">0</Timestamp><DateUtc dt:dt=""string"">2016-04-22T20:35:21Z</DateUtc></StartTime><FrequencyChanges><FrequencyChange><Frequency dt:dt=""r8"">2857431</Frequency><Timestamp dt:dt=""r8"">2077209034806</Timestamp><Current dt:dt=""r8"">0</Current><DateUtc dt:dt=""string"">2016-04-22T20:35:21Z</DateUtc></FrequencyChange></FrequencyChanges></Clock>\n",60.002,Native Japanese Speaker,-1554578449,4/22/2016,13:35:21,?? 8:35:21,female,6,Blockproc,SpeakerList,1,1,4,1,18,0,,-999999,40,862814,1,471,863285,SoundProc,,SecondSenarioList,7,8,38,,,,7,1_7_cas.wav,1_7_pol.wav,
PolitenessJapanese_Perception,9,1,20,"<?xml version=""1.0""?>\n<Clock xmlns:dt=""urn:schemas-microsoft-com:datatypes""><Description dt:dt=""string"">E-Prime Primary Realtime Clock</Description><StartTime><Timestamp dt:dt=""int"">0</Timestamp><DateUtc dt:dt=""string"">2016-04-22T20:35:21Z</DateUtc></StartTime><FrequencyChanges><FrequencyChange><Frequency dt:dt=""r8"">2857431</Frequency><Timestamp dt:dt=""r8"">2077209034806</Timestamp><Current dt:dt=""r8"">0</Current><DateUtc dt:dt=""string"">2016-04-22T20:35:21Z</DateUtc></FrequencyChange></FrequencyChanges></Clock>\n",60.002,Native Japanese Speaker,-1554578449,4/22/2016,13:35:21,?? 8:35:21,female,6,Blockproc,SpeakerList,1,1,4,1,19,0,,-999999,36,869630,1,591,870221,SoundProc,,SecondSenarioList,4,8,39,,,,4,1_4_cas.wav,1_4_pol.wav,
PolitenessJapanese_Perception,9,1,20,"<?xml version=""1.0""?>\n<Clock xmlns:dt=""urn:schemas-microsoft-com:datatypes""><Description dt:dt=""string"">E-Prime Primary Realtime Clock</Description><StartTime><Timestamp dt:dt=""int"">0</Timestamp><DateUtc dt:dt=""string"">2016-04-22T20:35:21Z</DateUtc></StartTime><FrequencyChanges><FrequencyChange><Frequency dt:dt=""r8"">2857431</Frequency><Timestamp dt:dt=""r8"">2077209034806</Timestamp><Current dt:dt=""r8"">0</Current><DateUtc dt:dt=""string"">2016-04-22T20:35:21Z</DateUtc></FrequencyChange></FrequencyChanges></Clock>\n",60.002,Native Japanese Speaker,-1554578449,4/22/2016,13:35:21,?? 8:35:21,female,6,Blockproc,SpeakerList,1,1,4,1,20,0,,-999999,28,875213,1,1384,876597,SoundProc,,SecondSenarioList,9,8,40,,,,9,1_9_cas.wav,1_9_pol.wav,
PolitenessJapanese_Perception,9,1,20,"<?xml version=""1.0""?>\n<Clock xmlns:dt=""urn:schemas-microsoft-com:datatypes""><Description dt:dt=""string"">E-Prime Primary Realtime Clock</Description><StartTime><Timestamp dt:dt=""int"">0</Timestamp><DateUtc dt:dt=""string"">2016-04-22T20:35:21Z</DateUtc></StartTime><FrequencyChanges><FrequencyChange><Frequency dt:dt=""r8"">2857431</Frequency><Timestamp dt:dt=""r8"">2077209034806</Timestamp><Current dt:dt=""r8"">0</Current><DateUtc dt:dt=""string"">2016-04-22T20:35:21Z</DateUtc></FrequencyChange></FrequencyChanges></Clock>\n",60.002,Native Japanese Speaker,-1554578449,4/22/2016,13:35:21,?? 8:35:21,female,7,Blockproc,SpeakerList,4,1,5,9,1,0,,-999999,39,883163,1,697,883860,SenarioProc,2,SenarioList,,,,7,5,41,7,9_7_pol.wav,9_7_cas.wav,9_7_pol.wav
PolitenessJapanese_Perception,9,1,20,"<?xml version=""1.0""?>\n<Clock xmlns:dt=""urn:schemas-microsoft-com:datatypes""><Description dt:dt=""string"">E-Prime Primary Realtime Clock</Description><StartTime><Timestamp dt:dt=""int"">0</Timestamp><DateUtc dt:dt=""string"">2016-04-22T20:35:21Z</DateUtc></StartTime><FrequencyChanges><FrequencyChange><Frequency dt:dt=""r8"">2857431</Frequency><Timestamp dt:dt=""r8"">2077209034806</Timestamp><Current dt:dt=""r8"">0</Current><DateUtc dt:dt=""string"">2016-04-22T20:35:21Z</DateUtc></FrequencyChange></FrequencyChanges></Clock>\n",60.002,Native Japanese Speaker,-1554578449,4/22/2016,13:35:21,?? 8:35:21,female,7,Blockproc,SpeakerList,4,1,5,9,2,0,,-999999,43,890196,2,472,890668,SenarioProc,2,SenarioList,,,,4,5,42,4,9_4_pol.wav,9_4_cas.wav,9_4_pol.wav
PolitenessJapanese_Perception,9,1,20,"<?xml version=""1.0""?>\n<Clock xmlns:dt=""urn:schemas-microsoft-com:datatypes""><Description dt:dt=""string"">E-Prime Primary Realtime Clock</Description><StartTime><Timestamp dt:dt=""int"">0</Timestamp><DateUtc dt:dt=""string"">2016-04-22T20:35:21Z</DateUtc></StartTime><FrequencyChanges><FrequencyChange><Frequency dt:dt=""r8"">2857431</Frequency><Timestamp dt:dt=""r8"">2077209034806</Timestamp><Current dt:dt=""r8"">0</Current><DateUtc dt:dt=""string"">2016-04-22T20:35:21Z</DateUtc></FrequencyChange></FrequencyChanges></Clock>\n",60.002,Native Japanese Speaker,-1554578449,4/22/2016,13:35:21,?? 8:35:21,female,7,Blockproc,SpeakerList,4,1,5,9,3,0,,-999999,30,896213,2,351,896564,SenarioProc,2,SenarioList,,,,3,5,43,3,9_3_pol.wav,9_3_cas.wav,9_3_pol.wav
PolitenessJapanese_Perception,9,1,20,"<?xml version=""1.0""?>\n<Clock xmlns:dt=""urn:schemas-microsoft-com:datatypes""><Description dt:dt=""string"">E-Prime Primary Realtime Clock</Description><StartTime><Timestamp dt:dt=""int"">0</Timestamp><DateUtc dt:dt=""string"">2016-04-22T20:35:21Z</DateUtc></StartTime><FrequencyChanges><FrequencyChange><Frequency dt:dt=""r8"">2857431</Frequency><Timestamp dt:dt=""r8"">2077209034806</Timestamp><Current dt:dt=""r8"">0</Current><DateUtc dt:dt=""string"">2016-04-22T20:35:21Z</DateUtc></FrequencyChange></FrequencyChanges></Clock>\n",60.002,Native Japanese Speaker,-1554578449,4/22/2016,13:35:21,?? 8:35:21,female,7,Blockproc,SpeakerList,4,1,5,9,4,0,,-999999,33,902346,2,386,902732,SenarioProc,1,SenarioList,,,,5,5,44,5,9_5_cas.wav,9_5_pol.wav,9_5_cas.wav
PolitenessJapanese_Perception,9,1,20,"<?xml version=""1.0""?>\n<Clock xmlns:dt=""urn:schemas-microsoft-com:datatypes""><Description dt:dt=""string"">E-Prime Primary Realtime Clock</Description><StartTime><Timestamp dt:dt=""int"">0</Timestamp><DateUtc dt:dt=""string"">2016-04-22T20:35:21Z</DateUtc></StartTime><FrequencyChanges><FrequencyChange><Frequency dt:dt=""r8"">2857431</Frequency><Timestamp dt:dt=""r8"">2077209034806</Timestamp><Current dt:dt=""r8"">0</Current><DateUtc dt:dt=""string"">2016-04-22T20:35:21Z</DateUtc></FrequencyChange></FrequencyChanges></Clock>\n",60.002,Native Japanese Speaker,-1554578449,4/22/2016,13:35:21,?? 8:35:21,female,7,Blockproc,SpeakerList,4,1,5,9,5,0,,-999999,43,908396,2,320,908716,SenarioProc,1,SenarioList,,,,8,5,45,8,9_8_cas.wav,9_8_pol.wav,9_8_cas.wav
PolitenessJapanese_Perception,9,1,20,"<?xml version=""1.0""?>\n<Clock xmlns:dt=""urn:schemas-microsoft-com:datatypes""><Description dt:dt=""string"">E-Prime Primary Realtime Clock</Description><StartTime><Timestamp dt:dt=""int"">0</Timestamp><DateUtc dt:dt=""string"">2016-04-22T20:35:21Z</DateUtc></StartTime><FrequencyChanges><FrequencyChange><Frequency dt:dt=""r8"">2857431</Frequency><Timestamp dt:dt=""r8"">2077209034806</Timestamp><Current dt:dt=""r8"">0</Current><DateUtc dt:dt=""string"">2016-04-22T20:35:21Z</DateUtc></FrequencyChange></FrequencyChanges></Clock>\n",60.002,Native Japanese Speaker,-1554578449,4/22/2016,13:35:21,?? 8:35:21,female,7,Blockproc,SpeakerList,4,1,5,9,6,0,,-999999,42,913845,1,359,914204,SenarioProc,2,SenarioList,,,,9,5,46,9,9_9_pol.wav,9_9_cas.wav,9_9_pol.wav
PolitenessJapanese_Perception,9,1,20,"<?xml version=""1.0""?>\n<Clock xmlns:dt=""urn:schemas-microsoft-com:datatypes""><Description dt:dt=""string"">E-Prime Primary Realtime Clock</Description><StartTime><Timestamp dt:dt=""int"">0</Timestamp><DateUtc dt:dt=""string"">2016-04-22T20:35:21Z</DateUtc></StartTime><FrequencyChanges><FrequencyChange><Frequency dt:dt=""r8"">2857431</Frequency><Timestamp dt:dt=""r8"">2077209034806</Timestamp><Current dt:dt=""r8"">0</Current><DateUtc dt:dt=""string"">2016-04-22T20:35:21Z</DateUtc></FrequencyChange></FrequencyChanges></Clock>\n",60.002,Native Japanese Speaker,-1554578449,4/22/2016,13:35:21,?? 8:35:21,female,7,Blockproc,SpeakerList,4,1,5,9,7,0,,-999999,39,918912,2,476,919388,SenarioProc,1,SenarioList,,,,6,5,47,6,9_6_cas.wav,9_6_pol.wav,9_6_cas.wav
PolitenessJapanese_Perception,9,1,20,"<?xml version=""1.0""?>\n<Clock xmlns:dt=""urn:schemas-microsoft-com:datatypes""><Description dt:dt=""string"">E-Prime Primary Realtime Clock</Description><StartTime><Timestamp dt:dt=""int"">0</Timestamp><DateUtc dt:dt=""string"">2016-04-22T20:35:21Z</DateUtc></StartTime><FrequencyChanges><FrequencyChange><Frequency dt:dt=""r8"">2857431</Frequency><Timestamp dt:dt=""r8"">2077209034806</Timestamp><Current dt:dt=""r8"">0</Current><DateUtc dt:dt=""string"">2016-04-22T20:35:21Z</DateUtc></FrequencyChange></FrequencyChanges></Clock>\n",60.002,Native Japanese Speaker,-1554578449,4/22/2016,13:35:21,?? 8:35:21,female,7,Blockproc,SpeakerList,4,1,5,9,8,0,,-999999,29,924462,1,486,924948,SenarioProc,2,SenarioList,,,,10,5,48,10,9_10_pol.wav,9_10_cas.wav,9_10_pol.wav
PolitenessJapanese_Perception,9,1,20,"<?xml version=""1.0""?>\n<Clock xmlns:dt=""urn:schemas-microsoft-com:datatypes""><Description dt:dt=""string"">E-Prime Primary Realtime Clock</Description><StartTime><Timestamp dt:dt=""int"">0</Timestamp><DateUtc dt:dt=""string"">2016-04-22T20:35:21Z</DateUtc></StartTime><FrequencyChanges><FrequencyChange><Frequency dt:dt=""r8"">2857431</Frequency><Timestamp dt:dt=""r8"">2077209034806</Timestamp><Current dt:dt=""r8"">0</Current><DateUtc dt:dt=""string"">2016-04-22T20:35:21Z</DateUtc></FrequencyChange></FrequencyChanges></Clock>\n",60.002,Native Japanese Speaker,-1554578449,4/22/2016,13:35:21,?? 8:35:21,female,7,Blockproc,SpeakerList,4,1,5,9,9,0,,-999999,42,930095,1,221,930316,SenarioProc,1,SenarioList,,,,1,5,49,1,9_1_cas.wav,9_1_pol.wav,9_1_cas.wav
PolitenessJapanese_Perception,9,1,20,"<?xml version=""1.0""?>\n<Clock xmlns:dt=""urn:schemas-microsoft-com:datatypes""><Description dt:dt=""string"">E-Prime Primary Realtime Clock</Description><StartTime><Timestamp dt:dt=""int"">0</Timestamp><DateUtc dt:dt=""string"">2016-04-22T20:35:21Z</DateUtc></StartTime><FrequencyChanges><FrequencyChange><Frequency dt:dt=""r8"">2857431</Frequency><Timestamp dt:dt=""r8"">2077209034806</Timestamp><Current dt:dt=""r8"">0</Current><DateUtc dt:dt=""string"">2016-04-22T20:35:21Z</DateUtc></FrequencyChange></FrequencyChanges></Clock>\n",60.002,Native Japanese Speaker,-1554578449,4/22/2016,13:35:21,?? 8:35:21,female,7,Blockproc,SpeakerList,4,1,5,9,10,1,,0,28,935411,,0,0,SenarioProc,2,SenarioList,,,,2,5,50,2,9_2_pol.wav,9_2_cas.wav,9_2_pol.wav
PolitenessJapanese_Perception,9,1,20,"<?xml version=""1.0""?>\n<Clock xmlns:dt=""urn:schemas-microsoft-com:datatypes""><Description dt:dt=""string"">E-Prime Primary Realtime Clock</Description><StartTime><Timestamp dt:dt=""int"">0</Timestamp><DateUtc dt:dt=""string"">2016-04-22T20:35:21Z</DateUtc></StartTime><FrequencyChanges><FrequencyChange><Frequency dt:dt=""r8"">2857431</Frequency><Timestamp dt:dt=""r8"">2077209034806</Timestamp><Current dt:dt=""r8"">0</Current><DateUtc dt:dt=""string"">2016-04-22T20:35:21Z</DateUtc></FrequencyChange></FrequencyChanges></Clock>\n",60.002,Native Japanese Speaker,-1554578449,4/22/2016,13:35:21,?? 8:35:21,female,7,Blockproc,SpeakerList,4,1,5,9,11,0,,-999999,34,943528,2,756,944284,SoundProc,,SecondSenarioList,1,10,41,,,,1,9_1_pol.wav,9_1_cas.wav,
PolitenessJapanese_Perception,9,1,20,"<?xml version=""1.0""?>\n<Clock xmlns:dt=""urn:schemas-microsoft-com:datatypes""><Description dt:dt=""string"">E-Prime Primary Realtime Clock</Description><StartTime><Timestamp dt:dt=""int"">0</Timestamp><DateUtc dt:dt=""string"">2016-04-22T20:35:21Z</DateUtc></StartTime><FrequencyChanges><FrequencyChange><Frequency dt:dt=""r8"">2857431</Frequency><Timestamp dt:dt=""r8"">2077209034806</Timestamp><Current dt:dt=""r8"">0</Current><DateUtc dt:dt=""string"">2016-04-22T20:35:21Z</DateUtc></FrequencyChange></FrequencyChanges></Clock>\n",60.002,Native Japanese Speaker,-1554578449,4/22/2016,13:35:21,?? 8:35:21,female,7,Blockproc,SpeakerList,4,1,5,9,12,0,,-999999,28,949411,1,505,949916,SoundProc,,SecondSenarioList,9,10,42,,,,9,9_9_cas.wav,9_9_pol.wav,
PolitenessJapanese_Perception,9,1,20,"<?xml version=""1.0""?>\n<Clock xmlns:dt=""urn:schemas-microsoft-com:datatypes""><Description dt:dt=""string"">E-Prime Primary Realtime Clock</Description><StartTime><Timestamp dt:dt=""int"">0</Timestamp><DateUtc dt:dt=""string"">2016-04-22T20:35:21Z</DateUtc></StartTime><FrequencyChanges><FrequencyChange><Frequency dt:dt=""r8"">2857431</Frequency><Timestamp dt:dt=""r8"">2077209034806</Timestamp><Current dt:dt=""r8"">0</Current><DateUtc dt:dt=""string"">2016-04-22T20:35:21Z</DateUtc></FrequencyChange></FrequencyChanges></Clock>\n",60.002,Native Japanese Speaker,-1554578449,4/22/2016,13:35:21,?? 8:35:21,female,7,Blockproc,SpeakerList,4,1,5,9,13,0,,-999999,28,955561,1,467,956028,SoundProc,,SecondSenarioList,8,10,43,,,,8,9_8_pol.wav,9_8_cas.wav,
PolitenessJapanese_Perception,9,1,20,"<?xml version=""1.0""?>\n<Clock xmlns:dt=""urn:schemas-microsoft-com:datatypes""><Description dt:dt=""string"">E-Prime Primary Realtime Clock</Description><StartTime><Timestamp dt:dt=""int"">0</Timestamp><DateUtc dt:dt=""string"">2016-04-22T20:35:21Z</DateUtc></StartTime><FrequencyChanges><FrequencyChange><Frequency dt:dt=""r8"">2857431</Frequency><Timestamp dt:dt=""r8"">2077209034806</Timestamp><Current dt:dt=""r8"">0</Current><DateUtc dt:dt=""string"">2016-04-22T20:35:21Z</DateUtc></FrequencyChange></FrequencyChanges></Clock>\n",60.002,Native Japanese Speaker,-1554578449,4/22/2016,13:35:21,?? 8:35:21,female,7,Blockproc,SpeakerList,4,1,5,9,14,0,,-999999,34,960727,1,413,961140,SoundProc,,SecondSenarioList,6,10,44,,,,6,9_6_pol.wav,9_6_cas.wav,
PolitenessJapanese_Perception,9,1,20,"<?xml version=""1.0""?>\n<Clock xmlns:dt=""urn:schemas-microsoft-com:datatypes""><Description dt:dt=""string"">E-Prime Primary Realtime Clock</Description><StartTime><Timestamp dt:dt=""int"">0</Timestamp><DateUtc dt:dt=""string"">2016-04-22T20:35:21Z</DateUtc></StartTime><FrequencyChanges><FrequencyChange><Frequency dt:dt=""r8"">2857431</Frequency><Timestamp dt:dt=""r8"">2077209034806</Timestamp><Current dt:dt=""r8"">0</Current><DateUtc dt:dt=""string"">2016-04-22T20:35:21Z</DateUtc></FrequencyChange></FrequencyChanges></Clock>\n",60.002,Native Japanese Speaker,-1554578449,4/22/2016,13:35:21,?? 8:35:21,female,7,Blockproc,SpeakerList,4,1,5,9,15,0,,-999999,27,966160,2,620,966780,SoundProc,,SecondSenarioList,10,10,45,,,,10,9_10_cas.wav,9_10_pol.wav,
PolitenessJapanese_Perception,9,1,20,"<?xml version=""1.0""?>\n<Clock xmlns:dt=""urn:schemas-microsoft-com:datatypes""><Description dt:dt=""string"">E-Prime Primary Realtime Clock</Description><StartTime><Timestamp dt:dt=""int"">0</Timestamp><DateUtc dt:dt=""string"">2016-04-22T20:35:21Z</DateUtc></StartTime><FrequencyChanges><FrequencyChange><Frequency dt:dt=""r8"">2857431</Frequency><Timestamp dt:dt=""r8"">2077209034806</Timestamp><Current dt:dt=""r8"">0</Current><DateUtc dt:dt=""string"">2016-04-22T20:35:21Z</DateUtc></FrequencyChange></FrequencyChanges></Clock>\n",60.002,Native Japanese Speaker,-1554578449,4/22/2016,13:35:21,?? 8:35:21,female,7,Blockproc,SpeakerList,4,1,5,9,16,0,,-999999,34,971577,2,547,972124,SoundProc,,SecondSenarioList,7,10,46,,,,7,9_7_cas.wav,9_7_pol.wav,
PolitenessJapanese_Perception,9,1,20,"<?xml version=""1.0""?>\n<Clock xmlns:dt=""urn:schemas-microsoft-com:datatypes""><Description dt:dt=""string"">E-Prime Primary Realtime Clock</Description><StartTime><Timestamp dt:dt=""int"">0</Timestamp><DateUtc dt:dt=""string"">2016-04-22T20:35:21Z</DateUtc></StartTime><FrequencyChanges><FrequencyChange><Frequency dt:dt=""r8"">2857431</Frequency><Timestamp dt:dt=""r8"">2077209034806</Timestamp><Current dt:dt=""r8"">0</Current><DateUtc dt:dt=""string"">2016-04-22T20:35:21Z</DateUtc></FrequencyChange></FrequencyChanges></Clock>\n",60.002,Native Japanese Speaker,-1554578449,4/22/2016,13:35:21,?? 8:35:21,female,7,Blockproc,SpeakerList,4,1,5,9,17,0,,-999999,34,978427,1,745,979172,SoundProc,,SecondSenarioList,4,10,47,,,,4,9_4_cas.wav,9_4_pol.wav,
PolitenessJapanese_Perception,9,1,20,"<?xml version=""1.0""?>\n<Clock xmlns:dt=""urn:schemas-microsoft-com:datatypes""><Description dt:dt=""string"">E-Prime Primary Realtime Clock</Description><StartTime><Timestamp dt:dt=""int"">0</Timestamp><DateUtc dt:dt=""string"">2016-04-22T20:35:21Z</DateUtc></StartTime><FrequencyChanges><FrequencyChange><Frequency dt:dt=""r8"">2857431</Frequency><Timestamp dt:dt=""r8"">2077209034806</Timestamp><Current dt:dt=""r8"">0</Current><DateUtc dt:dt=""string"">2016-04-22T20:35:21Z</DateUtc></FrequencyChange></FrequencyChanges></Clock>\n",60.002,Native Japanese Speaker,-1554578449,4/22/2016,13:35:21,?? 8:35:21,female,7,Blockproc,SpeakerList,4,1,5,9,18,0,,-999999,39,984943,2,1213,986156,SoundProc,,SecondSenarioList,5,10,48,,,,5,9_5_pol.wav,9_5_cas.wav,
PolitenessJapanese_Perception,9,1,20,"<?xml version=""1.0""?>\n<Clock xmlns:dt=""urn:schemas-microsoft-com:datatypes""><Description dt:dt=""string"">E-Prime Primary Realtime Clock</Description><StartTime><Timestamp dt:dt=""int"">0</Timestamp><DateUtc dt:dt=""string"">2016-04-22T20:35:21Z</DateUtc></StartTime><FrequencyChanges><FrequencyChange><Frequency dt:dt=""r8"">2857431</Frequency><Timestamp dt:dt=""r8"">2077209034806</Timestamp><Current dt:dt=""r8"">0</Current><DateUtc dt:dt=""string"">2016-04-22T20:35:21Z</DateUtc></FrequencyChange></FrequencyChanges></Clock>\n",60.002,Native Japanese Speaker,-1554578449,4/22/2016,13:35:21,?? 8:35:21,female,7,Blockproc,SpeakerList,4,1,5,9,19,0,,-999999,33,991726,1,397,992123,SoundProc,,SecondSenarioList,3,10,49,,,,3,9_3_cas.wav,9_3_pol.wav,
PolitenessJapanese_Perception,9,1,20,"<?xml version=""1.0""?>\n<Clock xmlns:dt=""urn:schemas-microsoft-com:datatypes""><Description dt:dt=""string"">E-Prime Primary Realtime Clock</Description><StartTime><Timestamp dt:dt=""int"">0</Timestamp><DateUtc dt:dt=""string"">2016-04-22T20:35:21Z</DateUtc></StartTime><FrequencyChanges><FrequencyChange><Frequency dt:dt=""r8"">2857431</Frequency><Timestamp dt:dt=""r8"">2077209034806</Timestamp><Current dt:dt=""r8"">0</Current><DateUtc dt:dt=""string"">2016-04-22T20:35:21Z</DateUtc></FrequencyChange></FrequencyChanges></Clock>\n",60.002,Native Japanese Speaker,-1554578449,4/22/2016,13:35:21,?? 8:35:21,female,7,Blockproc,SpeakerList,4,1,5,9,20,0,,-999999,36,997209,2,938,998147,SoundProc,,SecondSenarioList,2,10,50,,,,2,9_2_cas.wav,9_2_pol.wav,
PolitenessJapanese_Perception,9,1,20,"<?xml version=""1.0""?>\n<Clock xmlns:dt=""urn:schemas-microsoft-com:datatypes""><Description dt:dt=""string"">E-Prime Primary Realtime Clock</Description><StartTime><Timestamp dt:dt=""int"">0</Timestamp><DateUtc dt:dt=""string"">2016-04-22T20:35:21Z</DateUtc></StartTime><FrequencyChanges><FrequencyChange><Frequency dt:dt=""r8"">2857431</Frequency><Timestamp dt:dt=""r8"">2077209034806</Timestamp><Current dt:dt=""r8"">0</Current><DateUtc dt:dt=""string"">2016-04-22T20:35:21Z</DateUtc></FrequencyChange></FrequencyChanges></Clock>\n",60.002,Native Japanese Speaker,-1554578449,4/22/2016,13:35:21,?? 8:35:21,female,8,Blockproc,SpeakerList,6,1,6,11,1,0,,-999999,30,1010942,2,509,1011451,SenarioProc,1,SenarioList,,,,3,6,51,3,11_3_cas.wav,11_3_pol.wav,11_3_cas.wav
PolitenessJapanese_Perception,9,1,20,"<?xml version=""1.0""?>\n<Clock xmlns:dt=""urn:schemas-microsoft-com:datatypes""><Description dt:dt=""string"">E-Prime Primary Realtime Clock</Description><StartTime><Timestamp dt:dt=""int"">0</Timestamp><DateUtc dt:dt=""string"">2016-04-22T20:35:21Z</DateUtc></StartTime><FrequencyChanges><FrequencyChange><Frequency dt:dt=""r8"">2857431</Frequency><Timestamp dt:dt=""r8"">2077209034806</Timestamp><Current dt:dt=""r8"">0</Current><DateUtc dt:dt=""string"">2016-04-22T20:35:21Z</DateUtc></FrequencyChange></FrequencyChanges></Clock>\n",60.002,Native Japanese Speaker,-1554578449,4/22/2016,13:35:21,?? 8:35:21,female,8,Blockproc,SpeakerList,6,1,6,11,2,0,,-999999,38,1016392,1,627,1017019,SenarioProc,2,SenarioList,,,,6,6,52,6,11_6_pol.wav,11_6_cas.wav,11_6_pol.wav
PolitenessJapanese_Perception,9,1,20,"<?xml version=""1.0""?>\n<Clock xmlns:dt=""urn:schemas-microsoft-com:datatypes""><Description dt:dt=""string"">E-Prime Primary Realtime Clock</Description><StartTime><Timestamp dt:dt=""int"">0</Timestamp><DateUtc dt:dt=""string"">2016-04-22T20:35:21Z</DateUtc></StartTime><FrequencyChanges><FrequencyChange><Frequency dt:dt=""r8"">2857431</Frequency><Timestamp dt:dt=""r8"">2077209034806</Timestamp><Current dt:dt=""r8"">0</Current><DateUtc dt:dt=""string"">2016-04-22T20:35:21Z</DateUtc></FrequencyChange></FrequencyChanges></Clock>\n",60.002,Native Japanese Speaker,-1554578449,4/22/2016,13:35:21,?? 8:35:21,female,8,Blockproc,SpeakerList,6,1,6,11,3,0,,-999999,33,1022675,2,512,1023187,SenarioProc,1,SenarioList,,,,9,6,53,9,11_9_cas.wav,11_9_pol.wav,11_9_cas.wav
PolitenessJapanese_Perception,9,1,20,"<?xml version=""1.0""?>\n<Clock xmlns:dt=""urn:schemas-microsoft-com:datatypes""><Description dt:dt=""string"">E-Prime Primary Realtime Clock</Description><StartTime><Timestamp dt:dt=""int"">0</Timestamp><DateUtc dt:dt=""string"">2016-04-22T20:35:21Z</DateUtc></StartTime><FrequencyChanges><FrequencyChange><Frequency dt:dt=""r8"">2857431</Frequency><Timestamp dt:dt=""r8"">2077209034806</Timestamp><Current dt:dt=""r8"">0</Current><DateUtc dt:dt=""string"">2016-04-22T20:35:21Z</DateUtc></FrequencyChange></FrequencyChanges></Clock>\n",60.002,Native Japanese Speaker,-1554578449,4/22/2016,13:35:21,?? 8:35:21,female,8,Blockproc,SpeakerList,6,1,6,11,4,0,,-999999,27,1029859,1,552,1030411,SenarioProc,1,SenarioList,,,,4,6,54,4,11_4_cas.wav,11_4_pol.wav,11_4_cas.wav
PolitenessJapanese_Perception,9,1,20,"<?xml version=""1.0""?>\n<Clock xmlns:dt=""urn:schemas-microsoft-com:datatypes""><Description dt:dt=""string"">E-Prime Primary Realtime Clock</Description><StartTime><Timestamp dt:dt=""int"">0</Timestamp><DateUtc dt:dt=""string"">2016-04-22T20:35:21Z</DateUtc></StartTime><FrequencyChanges><FrequencyChange><Frequency dt:dt=""r8"">2857431</Frequency><Timestamp dt:dt=""r8"">2077209034806</Timestamp><Current dt:dt=""r8"">0</Current><DateUtc dt:dt=""string"">2016-04-22T20:35:21Z</DateUtc></FrequencyChange></FrequencyChanges></Clock>\n",60.002,Native Japanese Speaker,-1554578449,4/22/2016,13:35:21,?? 8:35:21,female,8,Blockproc,SpeakerList,6,1,6,11,5,0,,-999999,32,1036425,2,354,1036779,SenarioProc,1,SenarioList,,,,5,6,55,5,11_5_cas.wav,11_5_pol.wav,11_5_cas.wav
PolitenessJapanese_Perception,9,1,20,"<?xml version=""1.0""?>\n<Clock xmlns:dt=""urn:schemas-microsoft-com:datatypes""><Description dt:dt=""string"">E-Prime Primary Realtime Clock</Description><StartTime><Timestamp dt:dt=""int"">0</Timestamp><DateUtc dt:dt=""string"">2016-04-22T20:35:21Z</DateUtc></StartTime><FrequencyChanges><FrequencyChange><Frequency dt:dt=""r8"">2857431</Frequency><Timestamp dt:dt=""r8"">2077209034806</Timestamp><Current dt:dt=""r8"">0</Current><DateUtc dt:dt=""string"">2016-04-22T20:35:21Z</DateUtc></FrequencyChange></FrequencyChanges></Clock>\n",60.002,Native Japanese Speaker,-1554578449,4/22/2016,13:35:21,?? 8:35:21,female,8,Blockproc,SpeakerList,6,1,6,11,6,0,,-999999,30,1042192,2,507,1042699,SenarioProc,1,SenarioList,,,,2,6,56,2,11_2_cas.wav,11_2_pol.wav,11_2_cas.wav
PolitenessJapanese_Perception,9,1,20,"<?xml version=""1.0""?>\n<Clock xmlns:dt=""urn:schemas-microsoft-com:datatypes""><Description dt:dt=""string"">E-Prime Primary Realtime Clock</Description><StartTime><Timestamp dt:dt=""int"">0</Timestamp><DateUtc dt:dt=""string"">2016-04-22T20:35:21Z</DateUtc></StartTime><FrequencyChanges><FrequencyChange><Frequency dt:dt=""r8"">2857431</Frequency><Timestamp dt:dt=""r8"">2077209034806</Timestamp><Current dt:dt=""r8"">0</Current><DateUtc dt:dt=""string"">2016-04-22T20:35:21Z</DateUtc></FrequencyChange></FrequencyChanges></Clock>\n",60.002,Native Japanese Speaker,-1554578449,4/22/2016,13:35:21,?? 8:35:21,female,8,Blockproc,SpeakerList,6,1,6,11,7,0,,-999999,41,1048324,1,639,1048963,SenarioProc,2,SenarioList,,,,10,6,57,10,11_10_pol.wav,11_10_cas.wav,11_10_pol.wav
PolitenessJapanese_Perception,9,1,20,"<?xml version=""1.0""?>\n<Clock xmlns:dt=""urn:schemas-microsoft-com:datatypes""><Description dt:dt=""string"">E-Prime Primary Realtime Clock</Description><StartTime><Timestamp dt:dt=""int"">0</Timestamp><DateUtc dt:dt=""string"">2016-04-22T20:35:21Z</DateUtc></StartTime><FrequencyChanges><FrequencyChange><Frequency dt:dt=""r8"">2857431</Frequency><Timestamp dt:dt=""r8"">2077209034806</Timestamp><Current dt:dt=""r8"">0</Current><DateUtc dt:dt=""string"">2016-04-22T20:35:21Z</DateUtc></FrequencyChange></FrequencyChanges></Clock>\n",60.002,Native Japanese Speaker,-1554578449,4/22/2016,13:35:21,?? 8:35:21,female,8,Blockproc,SpeakerList,6,1,6,11,8,0,,-999999,39,1054391,2,700,1055091,SenarioProc,2,SenarioList,,,,7,6,58,7,11_7_pol.wav,11_7_cas.wav,11_7_pol.wav
PolitenessJapanese_Perception,9,1,20,"<?xml version=""1.0""?>\n<Clock xmlns:dt=""urn:schemas-microsoft-com:datatypes""><Description dt:dt=""string"">E-Prime Primary Realtime Clock</Description><StartTime><Timestamp dt:dt=""int"">0</Timestamp><DateUtc dt:dt=""string"">2016-04-22T20:35:21Z</DateUtc></StartTime><FrequencyChanges><FrequencyChange><Frequency dt:dt=""r8"">2857431</Frequency><Timestamp dt:dt=""r8"">2077209034806</Timestamp><Current dt:dt=""r8"">0</Current><DateUtc dt:dt=""string"">2016-04-22T20:35:21Z</DateUtc></FrequencyChange></FrequencyChanges></Clock>\n",60.002,Native Japanese Speaker,-1554578449,4/22/2016,13:35:21,?? 8:35:21,female,8,Blockproc,SpeakerList,6,1,6,11,9,0,,-999999,29,1061191,2,308,1061499,SenarioProc,1,SenarioList,,,,8,6,59,8,11_8_cas.wav,11_8_pol.wav,11_8_cas.wav
PolitenessJapanese_Perception,9,1,20,"<?xml version=""1.0""?>\n<Clock xmlns:dt=""urn:schemas-microsoft-com:datatypes""><Description dt:dt=""string"">E-Prime Primary Realtime Clock</Description><StartTime><Timestamp dt:dt=""int"">0</Timestamp><DateUtc dt:dt=""string"">2016-04-22T20:35:21Z</DateUtc></StartTime><FrequencyChanges><FrequencyChange><Frequency dt:dt=""r8"">2857431</Frequency><Timestamp dt:dt=""r8"">2077209034806</Timestamp><Current dt:dt=""r8"">0</Current><DateUtc dt:dt=""string"">2016-04-22T20:35:21Z</DateUtc></FrequencyChange></FrequencyChanges></Clock>\n",60.002,Native Japanese Speaker,-1554578449,4/22/2016,13:35:21,?? 8:35:21,female,8,Blockproc,SpeakerList,6,1,6,11,10,0,,-999999,42,1066874,2,569,1067443,SenarioProc,2,SenarioList,,,,1,6,60,1,11_1_pol.wav,11_1_cas.wav,11_1_pol.wav
PolitenessJapanese_Perception,9,1,20,"<?xml version=""1.0""?>\n<Clock xmlns:dt=""urn:schemas-microsoft-com:datatypes""><Description dt:dt=""string"">E-Prime Primary Realtime Clock</Description><StartTime><Timestamp dt:dt=""int"">0</Timestamp><DateUtc dt:dt=""string"">2016-04-22T20:35:21Z</DateUtc></StartTime><FrequencyChanges><FrequencyChange><Frequency dt:dt=""r8"">2857431</Frequency><Timestamp dt:dt=""r8"">2077209034806</Timestamp><Current dt:dt=""r8"">0</Current><DateUtc dt:dt=""string"">2016-04-22T20:35:21Z</DateUtc></FrequencyChange></FrequencyChanges></Clock>\n",60.002,Native Japanese Speaker,-1554578449,4/22/2016,13:35:21,?? 8:35:21,female,8,Blockproc,SpeakerList,6,1,6,11,11,0,,-999999,35,1072857,1,1074,1073931,SoundProc,,SecondSenarioList,2,12,51,,,,2,11_2_pol.wav,11_2_cas.wav,
PolitenessJapanese_Perception,9,1,20,"<?xml version=""1.0""?>\n<Clock xmlns:dt=""urn:schemas-microsoft-com:datatypes""><Description dt:dt=""string"">E-Prime Primary Realtime Clock</Description><StartTime><Timestamp dt:dt=""int"">0</Timestamp><DateUtc dt:dt=""string"">2016-04-22T20:35:21Z</DateUtc></StartTime><FrequencyChanges><FrequencyChange><Frequency dt:dt=""r8"">2857431</Frequency><Timestamp dt:dt=""r8"">2077209034806</Timestamp><Current dt:dt=""r8"">0</Current><DateUtc dt:dt=""string"">2016-04-22T20:35:21Z</DateUtc></FrequencyChange></FrequencyChanges></Clock>\n",60.002,Native Japanese Speaker,-1554578449,4/22/2016,13:35:21,?? 8:35:21,female,8,Blockproc,SpeakerList,6,1,6,11,12,0,,-999999,31,1079973,2,486,1080459,SoundProc,,SecondSenarioList,5,12,52,,,,5,11_5_pol.wav,11_5_cas.wav,
PolitenessJapanese_Perception,9,1,20,"<?xml version=""1.0""?>\n<Clock xmlns:dt=""urn:schemas-microsoft-com:datatypes""><Description dt:dt=""string"">E-Prime Primary Realtime Clock</Description><StartTime><Timestamp dt:dt=""int"">0</Timestamp><DateUtc dt:dt=""string"">2016-04-22T20:35:21Z</DateUtc></StartTime><FrequencyChanges><FrequencyChange><Frequency dt:dt=""r8"">2857431</Frequency><Timestamp dt:dt=""r8"">2077209034806</Timestamp><Current dt:dt=""r8"">0</Current><DateUtc dt:dt=""string"">2016-04-22T20:35:21Z</DateUtc></FrequencyChange></FrequencyChanges></Clock>\n",60.002,Native Japanese Speaker,-1554578449,4/22/2016,13:35:21,?? 8:35:21,female,8,Blockproc,SpeakerList,6,1,6,11,13,0,,-999999,31,1086323,2,576,1086899,SoundProc,,SecondSenarioList,3,12,53,,,,3,11_3_pol.wav,11_3_cas.wav,
PolitenessJapanese_Perception,9,1,20,"<?xml version=""1.0""?>\n<Clock xmlns:dt=""urn:schemas-microsoft-com:datatypes""><Description dt:dt=""string"">E-Prime Primary Realtime Clock</Description><StartTime><Timestamp dt:dt=""int"">0</Timestamp><DateUtc dt:dt=""string"">2016-04-22T20:35:21Z</DateUtc></StartTime><FrequencyChanges><FrequencyChange><Frequency dt:dt=""r8"">2857431</Frequency><Timestamp dt:dt=""r8"">2077209034806</Timestamp><Current dt:dt=""r8"">0</Current><DateUtc dt:dt=""string"">2016-04-22T20:35:21Z</DateUtc></FrequencyChange></FrequencyChanges></Clock>\n",60.002,Native Japanese Speaker,-1554578449,4/22/2016,13:35:21,?? 8:35:21,female,8,Blockproc,SpeakerList,6,1,6,11,14,0,,-999999,40,1092223,2,820,1093043,SoundProc,,SecondSenarioList,1,12,54,,,,1,11_1_cas.wav,11_1_pol.wav,
PolitenessJapanese_Perception,9,1,20,"<?xml version=""1.0""?>\n<Clock xmlns:dt=""urn:schemas-microsoft-com:datatypes""><Description dt:dt=""string"">E-Prime Primary Realtime Clock</Description><StartTime><Timestamp dt:dt=""int"">0</Timestamp><DateUtc dt:dt=""string"">2016-04-22T20:35:21Z</DateUtc></StartTime><FrequencyChanges><FrequencyChange><Frequency dt:dt=""r8"">2857431</Frequency><Timestamp dt:dt=""r8"">2077209034806</Timestamp><Current dt:dt=""r8"">0</Current><DateUtc dt:dt=""string"">2016-04-22T20:35:21Z</DateUtc></FrequencyChange></FrequencyChanges></Clock>\n",60.002,Native Japanese Speaker,-1554578449,4/22/2016,13:35:21,?? 8:35:21,female,8,Blockproc,SpeakerList,6,1,6,11,15,0,,-999999,27,1097939,2,799,1098738,SoundProc,,SecondSenarioList,6,12,55,,,,6,11_6_cas.wav,11_6_pol.wav,
PolitenessJapanese_Perception,9,1,20,"<?xml version=""1.0""?>\n<Clock xmlns:dt=""urn:schemas-microsoft-com:datatypes""><Description dt:dt=""string"">E-Prime Primary Realtime Clock</Description><StartTime><Timestamp dt:dt=""int"">0</Timestamp><DateUtc dt:dt=""string"">2016-04-22T20:35:21Z</DateUtc></StartTime><FrequencyChanges><FrequencyChange><Frequency dt:dt=""r8"">2857431</Frequency><Timestamp dt:dt=""r8"">2077209034806</Timestamp><Current dt:dt=""r8"">0</Current><DateUtc dt:dt=""string"">2016-04-22T20:35:21Z</DateUtc></FrequencyChange></FrequencyChanges></Clock>\n",60.002,Native Japanese Speaker,-1554578449,4/22/2016,13:35:21,?? 8:35:21,female,8,Blockproc,SpeakerList,6,1,6,11,16,0,,-999999,32,1104173,1,1021,1105194,SoundProc,,SecondSenarioList,7,12,56,,,,7,11_7_cas.wav,11_7_pol.wav,
PolitenessJapanese_Perception,9,1,20,"<?xml version=""1.0""?>\n<Clock xmlns:dt=""urn:schemas-microsoft-com:datatypes""><Description dt:dt=""string"">E-Prime Primary Realtime Clock</Description><StartTime><Timestamp dt:dt=""int"">0</Timestamp><DateUtc dt:dt=""string"">2016-04-22T20:35:21Z</DateUtc></StartTime><FrequencyChanges><FrequencyChange><Frequency dt:dt=""r8"">2857431</Frequency><Timestamp dt:dt=""r8"">2077209034806</Timestamp><Current dt:dt=""r8"">0</Current><DateUtc dt:dt=""string"">2016-04-22T20:35:21Z</DateUtc></FrequencyChange></FrequencyChanges></Clock>\n",60.002,Native Japanese Speaker,-1554578449,4/22/2016,13:35:21,?? 8:35:21,female,8,Blockproc,SpeakerList,6,1,6,11,17,0,,-999999,38,1111889,2,361,1112250,SoundProc,,SecondSenarioList,4,12,57,,,,4,11_4_pol.wav,11_4_cas.wav,
PolitenessJapanese_Perception,9,1,20,"<?xml version=""1.0""?>\n<Clock xmlns:dt=""urn:schemas-microsoft-com:datatypes""><Description dt:dt=""string"">E-Prime Primary Realtime Clock</Description><StartTime><Timestamp dt:dt=""int"">0</Timestamp><DateUtc dt:dt=""string"">2016-04-22T20:35:21Z</DateUtc></StartTime><FrequencyChanges><FrequencyChange><Frequency dt:dt=""r8"">2857431</Frequency><Timestamp dt:dt=""r8"">2077209034806</Timestamp><Current dt:dt=""r8"">0</Current><DateUtc dt:dt=""string"">2016-04-22T20:35:21Z</DateUtc></FrequencyChange></FrequencyChanges></Clock>\n",60.002,Native Japanese Speaker,-1554578449,4/22/2016,13:35:21,?? 8:35:21,female,8,Blockproc,SpeakerList,6,1,6,11,18,0,,-999999,31,1117872,1,226,1118098,SoundProc,,SecondSenarioList,9,12,58,,,,9,11_9_pol.wav,11_9_cas.wav,
PolitenessJapanese_Perception,9,1,20,"<?xml version=""1.0""?>\n<Clock xmlns:dt=""urn:schemas-microsoft-com:datatypes""><Description dt:dt=""string"">E-Prime Primary Realtime Clock</Description><StartTime><Timestamp dt:dt=""int"">0</Timestamp><DateUtc dt:dt=""string"">2016-04-22T20:35:21Z</DateUtc></StartTime><FrequencyChanges><FrequencyChange><Frequency dt:dt=""r8"">2857431</Frequency><Timestamp dt:dt=""r8"">2077209034806</Timestamp><Current dt:dt=""r8"">0</Current><DateUtc dt:dt=""string"">2016-04-22T20:35:21Z</DateUtc></FrequencyChange></FrequencyChanges></Clock>\n",60.002,Native Japanese Speaker,-1554578449,4/22/2016,13:35:21,?? 8:35:21,female,8,Blockproc,SpeakerList,6,1,6,11,19,0,,-999999,38,1123689,2,577,1124266,SoundProc,,SecondSenarioList,10,12,59,,,,10,11_10_cas.wav,11_10_pol.wav,
PolitenessJapanese_Perception,9,1,20,"<?xml version=""1.0""?>\n<Clock xmlns:dt=""urn:schemas-microsoft-com:datatypes""><Description dt:dt=""string"">E-Prime Primary Realtime Clock</Description><StartTime><Timestamp dt:dt=""int"">0</Timestamp><DateUtc dt:dt=""string"">2016-04-22T20:35:21Z</DateUtc></StartTime><FrequencyChanges><FrequencyChange><Frequency dt:dt=""r8"">2857431</Frequency><Timestamp dt:dt=""r8"">2077209034806</Timestamp><Current dt:dt=""r8"">0</Current><DateUtc dt:dt=""string"">2016-04-22T20:35:21Z</DateUtc></FrequencyChange></FrequencyChanges></Clock>\n",60.002,Native Japanese Speaker,-1554578449,4/22/2016,13:35:21,?? 8:35:21,female,8,Blockproc,SpeakerList,6,1,6,11,20,0,,-999999,31,1130372,2,774,1131146,SoundProc,,SecondSenarioList,8,12,60,,,,8,11_8_pol.wav,11_8_cas.wav,
PolitenessJapanese_Perception,9,1,20,"<?xml version=""1.0""?>\n<Clock xmlns:dt=""urn:schemas-microsoft-com:datatypes""><Description dt:dt=""string"">E-Prime Primary Realtime Clock</Description><StartTime><Timestamp dt:dt=""int"">0</Timestamp><DateUtc dt:dt=""string"">2016-04-22T20:35:21Z</DateUtc></StartTime><FrequencyChanges><FrequencyChange><Frequency dt:dt=""r8"">2857431</Frequency><Timestamp dt:dt=""r8"">2077209034806</Timestamp><Current dt:dt=""r8"">0</Current><DateUtc dt:dt=""string"">2016-04-22T20:35:21Z</DateUtc></FrequencyChange></FrequencyChanges></Clock>\n",60.002,Native Japanese Speaker,-1554578449,4/22/2016,13:35:21,?? 8:35:21,female,9,Blockproc,SpeakerList,3,1,7,3,1,0,,-999999,27,1141188,1,303,1141491,SenarioProc,2,SenarioList,,,,5,7,61,5,3_5_pol.wav,3_5_cas.wav,3_5_pol.wav
PolitenessJapanese_Perception,9,1,20,"<?xml version=""1.0""?>\n<Clock xmlns:dt=""urn:schemas-microsoft-com:datatypes""><Description dt:dt=""string"">E-Prime Primary Realtime Clock</Description><StartTime><Timestamp dt:dt=""int"">0</Timestamp><DateUtc dt:dt=""string"">2016-04-22T20:35:21Z</DateUtc></StartTime><FrequencyChanges><FrequencyChange><Frequency dt:dt=""r8"">2857431</Frequency><Timestamp dt:dt=""r8"">2077209034806</Timestamp><Current dt:dt=""r8"">0</Current><DateUtc dt:dt=""string"">2016-04-22T20:35:21Z</DateUtc></FrequencyChange></FrequencyChanges></Clock>\n",60.002,Native Japanese Speaker,-1554578449,4/22/2016,13:35:21,?? 8:35:21,female,9,Blockproc,SpeakerList,3,1,7,3,2,0,,-999999,33,1147454,2,316,1147770,SenarioProc,1,SenarioList,,,,3,7,62,3,3_3_cas.wav,3_3_pol.wav,3_3_cas.wav
PolitenessJapanese_Perception,9,1,20,"<?xml version=""1.0""?>\n<Clock xmlns:dt=""urn:schemas-microsoft-com:datatypes""><Description dt:dt=""string"">E-Prime Primary Realtime Clock</Description><StartTime><Timestamp dt:dt=""int"">0</Timestamp><DateUtc dt:dt=""string"">2016-04-22T20:35:21Z</DateUtc></StartTime><FrequencyChanges><FrequencyChange><Frequency dt:dt=""r8"">2857431</Frequency><Timestamp dt:dt=""r8"">2077209034806</Timestamp><Current dt:dt=""r8"">0</Current><DateUtc dt:dt=""string"">2016-04-22T20:35:21Z</DateUtc></FrequencyChange></FrequencyChanges></Clock>\n",60.002,Native Japanese Speaker,-1554578449,4/22/2016,13:35:21,?? 8:35:21,female,9,Blockproc,SpeakerList,3,1,7,3,3,0,,-999999,27,1153338,2,536,1153874,SenarioProc,2,SenarioList,,,,2,7,63,2,3_2_pol.wav,3_2_cas.wav,3_2_pol.wav
PolitenessJapanese_Perception,9,1,20,"<?xml version=""1.0""?>\n<Clock xmlns:dt=""urn:schemas-microsoft-com:datatypes""><Description dt:dt=""string"">E-Prime Primary Realtime Clock</Description><StartTime><Timestamp dt:dt=""int"">0</Timestamp><DateUtc dt:dt=""string"">2016-04-22T20:35:21Z</DateUtc></StartTime><FrequencyChanges><FrequencyChange><Frequency dt:dt=""r8"">2857431</Frequency><Timestamp dt:dt=""r8"">2077209034806</Timestamp><Current dt:dt=""r8"">0</Current><DateUtc dt:dt=""string"">2016-04-22T20:35:21Z</DateUtc></FrequencyChange></FrequencyChanges></Clock>\n",60.002,Native Japanese Speaker,-1554578449,4/22/2016,13:35:21,?? 8:35:21,female,9,Blockproc,SpeakerList,3,1,7,3,4,0,,-999999,33,1159904,1,442,1160346,SenarioProc,2,SenarioList,,,,9,7,64,9,3_9_pol.wav,3_9_cas.wav,3_9_pol.wav
