ExperimentName,Subject,Session,Age,Clock.Information,Display.RefreshRate,Group,RandomSeed,SessionDate,SessionTime,SessionTimeUtc,Sex,Block,Procedure[Block],Running[Block],SpeakerList,SpeakerList.Cycle,SpeakerList.Sample,SpeakerNumber,Trial,Decision.ACC,Decision.CRESP,Decision.DurationError,Decision.OnsetDelay,Decision.OnsetTime,Decision.RESP,Decision.RT,Decision.RTTime,Procedure[Trial],RandomizeSound,Running[Trial],SecondSenarioList,SecondSenarioList.Cycle,SecondSenarioList.Sample,SenarioList,SenarioList.Cycle,SenarioList.Sample,SenarioNumber,SoundFile,SoundFile2,SoundStim
KoreanPoliteness_Perception_2_Hangul,31,1,24,"<?xml version=""1.0""?>\n<Clock xmlns:dt=""urn:schemas-microsoft-com:datatypes""><Description dt:dt=""string"">E-Prime Primary Realtime Clock</Description><StartTime><Timestamp dt:dt=""int"">0</Timestamp><DateUtc dt:dt=""string"">2013-05-13T18:00:00Z</DateUtc></StartTime><FrequencyChanges><FrequencyChange><Frequency dt:dt=""r8"">2857431</Frequency><Timestamp dt:dt=""r8"">4772491452034</Timestamp><Current dt:dt=""r8"">0</Current><DateUtc dt:dt=""string"">2013-05-13T18:00:00Z</DateUtc></FrequencyChange></FrequencyChanges></Clock>\n",60.002,1,782969916,5/13/2013,11:00:00,6:00:00 PM,female,1,Blockproc,SpeakerList,5,1,1,5,1,0,,-999999,28,133904,2,541,134445,SenarioProc,2,SenarioList,,,,7,1,1,7,5_7_pan.wav,5_7_con.wav,5_7_pan.wav
KoreanPoliteness_Perception_2_Hangul,31,1,24,"<?xml version=""1.0""?>\n<Clock xmlns:dt=""urn:schemas-microsoft-com:datatypes""><Description dt:dt=""string"">E-Prime Primary Realtime Clock</Description><StartTime><Timestamp dt:dt=""int"">0</Timestamp><DateUtc dt:dt=""string"">2013-05-13T18:00:00Z</DateUtc></StartTime><FrequencyChanges><FrequencyChange><Frequency dt:dt=""r8"">2857431</Frequency><Timestamp dt:dt=""r8"">4772491452034</Timestamp><Current dt:dt=""r8"">0</Current><DateUtc dt:dt=""string"">2013-05-13T18:00:00Z</DateUtc></FrequencyChange></FrequencyChanges></Clock>\n",60.002,1,782969916,5/13/2013,11:00:00,6:00:00 PM,female,1,Blockproc,SpeakerList,5,1,1,5,2,0,,-999999,30,140337,2,548,140885,SenarioProc,1,SenarioList,,,,5,1,2,5,5_5_con.wav,5_5_pan.wav,5_5_con.wav
KoreanPoliteness_Perception_2_Hangul,31,1,24,"<?xml version=""1.0""?>\n<Clock xmlns:dt=""urn:schemas-microsoft-com:datatypes""><Description dt:dt=""string"">E-Prime Primary Realtime Clock</Description><StartTime><Timestamp dt:dt=""int"">0</Timestamp><DateUtc dt:dt=""string"">2013-05-13T18:00:00Z</DateUtc></StartTime><FrequencyChanges><FrequencyChange><Frequency dt:dt=""r8"">2857431</Frequency><Timestamp dt:dt=""r8"">4772491452034</Timestamp><Current dt:dt=""r8"">0</Current><DateUtc dt:dt=""string"">2013-05-13T18:00:00Z</DateUtc></FrequencyChange></FrequencyChanges></Clock>\n",60.002,1,782969916,5/13/2013,11:00:00,6:00:00 PM,female,1,Blockproc,SpeakerList,5,1,1,5,3,0,,-999999,36,147353,2,620,147973,SenarioProc,1,SenarioList,,,,3,1,3,3,5_3_con.wav,5_3_pan.wav,5_3_con.wav
KoreanPoliteness_Perception_2_Hangul,31,1,24,"<?xml version=""1.0""?>\n<Clock xmlns:dt=""urn:schemas-microsoft-com:datatypes""><Description dt:dt=""string"">E-Prime Primary Realtime Clock</Description><StartTime><Timestamp dt:dt=""int"">0</Timestamp><DateUtc dt:dt=""string"">2013-05-13T18:00:00Z</DateUtc></StartTime><FrequencyChanges><FrequencyChange><Frequency dt:dt=""r8"">2857431</Frequency><Timestamp dt:dt=""r8"">4772491452034</Timestamp><Current dt:dt=""r8"">0</Current><DateUtc dt:dt=""string"">2013-05-13T18:00:00Z</DateUtc></FrequencyChange></FrequencyChanges></Clock>\n",60.002,1,782969916,5/13/2013,11:00:00,6:00:00 PM,female,1,Blockproc,SpeakerList,5,1,1,5,4,0,,-999999,30,153086,2,247,153333,SenarioProc,2,SenarioList,,,,9,1,4,9,5_9_pan.wav,5_9_con.wav,5_9_pan.wav
KoreanPoliteness_Perception_2_Hangul,31,1,24,"<?xml version=""1.0""?>\n<Clock xmlns:dt=""urn:schemas-microsoft-com:datatypes""><Description dt:dt=""string"">E-Prime Primary Realtime Clock</Description><StartTime><Timestamp dt:dt=""int"">0</Timestamp><DateUtc dt:dt=""string"">2013-05-13T18:00:00Z</DateUtc></StartTime><FrequencyChanges><FrequencyChange><Frequency dt:dt=""r8"">2857431</Frequency><Timestamp dt:dt=""r8"">4772491452034</Timestamp><Current dt:dt=""r8"">0</Current><DateUtc dt:dt=""string"">2013-05-13T18:00:00Z</DateUtc></FrequencyChange></FrequencyChanges></Clock>\n",60.002,1,782969916,5/13/2013,11:00:00,6:00:00 PM,female,1,Blockproc,SpeakerList,5,1,1,5,5,0,,-999999,30,158386,1,483,158869,SenarioProc,1,SenarioList,,,,8,1,5,8,5_8_con.wav,5_8_pan.wav,5_8_con.wav
KoreanPoliteness_Perception_2_Hangul,31,1,24,"<?xml version=""1.0""?>\n<Clock xmlns:dt=""urn:schemas-microsoft-com:datatypes""><Description dt:dt=""string"">E-Prime Primary Realtime Clock</Description><StartTime><Timestamp dt:dt=""int"">0</Timestamp><DateUtc dt:dt=""string"">2013-05-13T18:00:00Z</DateUtc></StartTime><FrequencyChanges><FrequencyChange><Frequency dt:dt=""r8"">2857431</Frequency><Timestamp dt:dt=""r8"">4772491452034</Timestamp><Current dt:dt=""r8"">0</Current><DateUtc dt:dt=""string"">2013-05-13T18:00:00Z</DateUtc></FrequencyChange></FrequencyChanges></Clock>\n",60.002,1,782969916,5/13/2013,11:00:00,6:00:00 PM,female,1,Blockproc,SpeakerList,5,1,1,5,6,0,,-999999,35,164152,1,613,164765,SenarioProc,1,SenarioList,,,,10,1,6,10,5_10_con.wav,5_10_pan.wav,5_10_con.wav
KoreanPoliteness_Perception_2_Hangul,31,1,24,"<?xml version=""1.0""?>\n<Clock xmlns:dt=""urn:schemas-microsoft-com:datatypes""><Description dt:dt=""string"">E-Prime Primary Realtime Clock</Description><StartTime><Timestamp dt:dt=""int"">0</Timestamp><DateUtc dt:dt=""string"">2013-05-13T18:00:00Z</DateUtc></StartTime><FrequencyChanges><FrequencyChange><Frequency dt:dt=""r8"">2857431</Frequency><Timestamp dt:dt=""r8"">4772491452034</Timestamp><Current dt:dt=""r8"">0</Current><DateUtc dt:dt=""string"">2013-05-13T18:00:00Z</DateUtc></FrequencyChange></FrequencyChanges></Clock>\n",60.002,1,782969916,5/13/2013,11:00:00,6:00:00 PM,female,1,Blockproc,SpeakerList,5,1,1,5,7,0,,-999999,43,170019,1,506,170525,SenarioProc,1,SenarioList,,,,4,1,7,4,5_4_con.wav,5_4_pan.wav,5_4_con.wav
KoreanPoliteness_Perception_2_Hangul,31,1,24,"<?xml version=""1.0""?>\n<Clock xmlns:dt=""urn:schemas-microsoft-com:datatypes""><Description dt:dt=""string"">E-Prime Primary Realtime Clock</Description><StartTime><Timestamp dt:dt=""int"">0</Timestamp><DateUtc dt:dt=""string"">2013-05-13T18:00:00Z</DateUtc></StartTime><FrequencyChanges><FrequencyChange><Frequency dt:dt=""r8"">2857431</Frequency><Timestamp dt:dt=""r8"">4772491452034</Timestamp><Current dt:dt=""r8"">0</Current><DateUtc dt:dt=""string"">2013-05-13T18:00:00Z</DateUtc></FrequencyChange></FrequencyChanges></Clock>\n",60.002,1,782969916,5/13/2013,11:00:00,6:00:00 PM,female,1,Blockproc,SpeakerList,5,1,1,5,8,0,,-999999,43,175869,1,872,176741,SenarioProc,1,SenarioList,,,,2,1,8,2,5_2_con.wav,5_2_pan.wav,5_2_con.wav
KoreanPoliteness_Perception_2_Hangul,31,1,24,"<?xml version=""1.0""?>\n<Clock xmlns:dt=""urn:schemas-microsoft-com:datatypes""><Description dt:dt=""string"">E-Prime Primary Realtime Clock</Description><StartTime><Timestamp dt:dt=""int"">0</Timestamp><DateUtc dt:dt=""string"">2013-05-13T18:00:00Z</DateUtc></StartTime><FrequencyChanges><FrequencyChange><Frequency dt:dt=""r8"">2857431</Frequency><Timestamp dt:dt=""r8"">4772491452034</Timestamp><Current dt:dt=""r8"">0</Current><DateUtc dt:dt=""string"">2013-05-13T18:00:00Z</DateUtc></FrequencyChange></FrequencyChanges></Clock>\n",60.002,1,782969916,5/13/2013,11:00:00,6:00:00 PM,female,1,Blockproc,SpeakerList,5,1,1,5,9,0,,-999999,36,181502,2,223,181725,SenarioProc,2,SenarioList,,,,1,1,9,1,5_1_pan.wav,5_1_con.wav,5_1_pan.wav
KoreanPoliteness_Perception_2_Hangul,31,1,24,"<?xml version=""1.0""?>\n<Clock xmlns:dt=""urn:schemas-microsoft-com:datatypes""><Description dt:dt=""string"">E-Prime Primary Realtime Clock</Description><StartTime><Timestamp dt:dt=""int"">0</Timestamp><DateUtc dt:dt=""string"">2013-05-13T18:00:00Z</DateUtc></StartTime><FrequencyChanges><FrequencyChange><Frequency dt:dt=""r8"">2857431</Frequency><Timestamp dt:dt=""r8"">4772491452034</Timestamp><Current dt:dt=""r8"">0</Current><DateUtc dt:dt=""string"">2013-05-13T18:00:00Z</DateUtc></FrequencyChange></FrequencyChanges></Clock>\n",60.002,1,782969916,5/13/2013,11:00:00,6:00:00 PM,female,1,Blockproc,SpeakerList,5,1,1,5,10,0,,-999999,32,187018,2,723,187741,SenarioProc,1,SenarioList,,,,6,1,10,6,5_6_con.wav,5_6_pan.wav,5_6_con.wav
KoreanPoliteness_Perception_2_Hangul,31,1,24,"<?xml version=""1.0""?>\n<Clock xmlns:dt=""urn:schemas-microsoft-com:datatypes""><Description dt:dt=""string"">E-Prime Primary Realtime Clock</Description><StartTime><Timestamp dt:dt=""int"">0</Timestamp><DateUtc dt:dt=""string"">2013-05-13T18:00:00Z</DateUtc></StartTime><FrequencyChanges><FrequencyChange><Frequency dt:dt=""r8"">2857431</Frequency><Timestamp dt:dt=""r8"">4772491452034</Timestamp><Current dt:dt=""r8"">0</Current><DateUtc dt:dt=""string"">2013-05-13T18:00:00Z</DateUtc></FrequencyChange></FrequencyChanges></Clock>\n",60.002,1,782969916,5/13/2013,11:00:00,6:00:00 PM,female,1,Blockproc,SpeakerList,5,1,1,5,11,0,,-999999,29,193385,1,764,194149,SoundProc,,SecondSenarioList,7,2,1,,,,7,5_7_con.wav,5_7_pan.wav,
KoreanPoliteness_Perception_2_Hangul,31,1,24,"<?xml version=""1.0""?>\n<Clock xmlns:dt=""urn:schemas-microsoft-com:datatypes""><Description dt:dt=""string"">E-Prime Primary Realtime Clock</Description><StartTime><Timestamp dt:dt=""int"">0</Timestamp><DateUtc dt:dt=""string"">2013-05-13T18:00:00Z</DateUtc></StartTime><FrequencyChanges><FrequencyChange><Frequency dt:dt=""r8"">2857431</Frequency><Timestamp dt:dt=""r8"">4772491452034</Timestamp><Current dt:dt=""r8"">0</Current><DateUtc dt:dt=""string"">2013-05-13T18:00:00Z</DateUtc></FrequencyChange></FrequencyChanges></Clock>\n",60.002,1,782969916,5/13/2013,11:00:00,6:00:00 PM,female,1,Blockproc,SpeakerList,5,1,1,5,12,0,,-999999,36,199201,2,116,199317,SoundProc,,SecondSenarioList,8,2,2,,,,8,5_8_pan.wav,5_8_con.wav,
KoreanPoliteness_Perception_2_Hangul,31,1,24,"<?xml version=""1.0""?>\n<Clock xmlns:dt=""urn:schemas-microsoft-com:datatypes""><Description dt:dt=""string"">E-Prime Primary Realtime Clock</Description><StartTime><Timestamp dt:dt=""int"">0</Timestamp><DateUtc dt:dt=""string"">2013-05-13T18:00:00Z</DateUtc></StartTime><FrequencyChanges><FrequencyChange><Frequency dt:dt=""r8"">2857431</Frequency><Timestamp dt:dt=""r8"">4772491452034</Timestamp><Current dt:dt=""r8"">0</Current><DateUtc dt:dt=""string"">2013-05-13T18:00:00Z</DateUtc></FrequencyChange></FrequencyChanges></Clock>\n",60.002,1,782969916,5/13/2013,11:00:00,6:00:00 PM,female,1,Blockproc,SpeakerList,5,1,1,5,13,0,,-999999,39,204585,2,1412,205997,SoundProc,,SecondSenarioList,10,2,3,,,,10,5_10_pan.wav,5_10_con.wav,
KoreanPoliteness_Perception_2_Hangul,31,1,24,"<?xml version=""1.0""?>\n<Clock xmlns:dt=""urn:schemas-microsoft-com:datatypes""><Description dt:dt=""string"">E-Prime Primary Realtime Clock</Description><StartTime><Timestamp dt:dt=""int"">0</Timestamp><DateUtc dt:dt=""string"">2013-05-13T18:00:00Z</DateUtc></StartTime><FrequencyChanges><FrequencyChange><Frequency dt:dt=""r8"">2857431</Frequency><Timestamp dt:dt=""r8"">4772491452034</Timestamp><Current dt:dt=""r8"">0</Current><DateUtc dt:dt=""string"">2013-05-13T18:00:00Z</DateUtc></FrequencyChange></FrequencyChanges></Clock>\n",60.002,1,782969916,5/13/2013,11:00:00,6:00:00 PM,female,1,Blockproc,SpeakerList,5,1,1,5,14,0,,-999999,42,211118,1,631,211749,SoundProc,,SecondSenarioList,9,2,4,,,,9,5_9_con.wav,5_9_pan.wav,
KoreanPoliteness_Perception_2_Hangul,31,1,24,"<?xml version=""1.0""?>\n<Clock xmlns:dt=""urn:schemas-microsoft-com:datatypes""><Description dt:dt=""string"">E-Prime Primary Realtime Clock</Description><StartTime><Timestamp dt:dt=""int"">0</Timestamp><DateUtc dt:dt=""string"">2013-05-13T18:00:00Z</DateUtc></StartTime><FrequencyChanges><FrequencyChange><Frequency dt:dt=""r8"">2857431</Frequency><Timestamp dt:dt=""r8"">4772491452034</Timestamp><Current dt:dt=""r8"">0</Current><DateUtc dt:dt=""string"">2013-05-13T18:00:00Z</DateUtc></FrequencyChange></FrequencyChanges></Clock>\n",60.002,1,782969916,5/13/2013,11:00:00,6:00:00 PM,female,1,Blockproc,SpeakerList,5,1,1,5,15,0,,-999999,35,217651,2,1105,218756,SoundProc,,SecondSenarioList,5,2,5,,,,5,5_5_pan.wav,5_5_con.wav,
KoreanPoliteness_Perception_2_Hangul,31,1,24,"<?xml version=""1.0""?>\n<Clock xmlns:dt=""urn:schemas-microsoft-com:datatypes""><Description dt:dt=""string"">E-Prime Primary Realtime Clock</Description><StartTime><Timestamp dt:dt=""int"">0</Timestamp><DateUtc dt:dt=""string"">2013-05-13T18:00:00Z</DateUtc></StartTime><FrequencyChanges><FrequencyChange><Frequency dt:dt=""r8"">2857431</Frequency><Timestamp dt:dt=""r8"">4772491452034</Timestamp><Current dt:dt=""r8"">0</Current><DateUtc dt:dt=""string"">2013-05-13T18:00:00Z</DateUtc></FrequencyChange></FrequencyChanges></Clock>\n",60.002,1,782969916,5/13/2013,11:00:00,6:00:00 PM,female,1,Blockproc,SpeakerList,5,1,1,5,16,0,,-999999,41,223917,1,1135,225052,SoundProc,,SecondSenarioList,2,2,6,,,,2,5_2_pan.wav,5_2_con.wav,
KoreanPoliteness_Perception_2_Hangul,31,1,24,"<?xml version=""1.0""?>\n<Clock xmlns:dt=""urn:schemas-microsoft-com:datatypes""><Description dt:dt=""string"">E-Prime Primary Realtime Clock</Description><StartTime><Timestamp dt:dt=""int"">0</Timestamp><DateUtc dt:dt=""string"">2013-05-13T18:00:00Z</DateUtc></StartTime><FrequencyChanges><FrequencyChange><Frequency dt:dt=""r8"">2857431</Frequency><Timestamp dt:dt=""r8"">4772491452034</Timestamp><Current dt:dt=""r8"">0</Current><DateUtc dt:dt=""string"">2013-05-13T18:00:00Z</DateUtc></FrequencyChange></FrequencyChanges></Clock>\n",60.002,1,782969916,5/13/2013,11:00:00,6:00:00 PM,female,1,Blockproc,SpeakerList,5,1,1,5,17,0,,-999999,35,229801,1,491,230292,SoundProc,,SecondSenarioList,1,2,7,,,,1,5_1_con.wav,5_1_pan.wav,
KoreanPoliteness_Perception_2_Hangul,31,1,24,"<?xml version=""1.0""?>\n<Clock xmlns:dt=""urn:schemas-microsoft-com:datatypes""><Description dt:dt=""string"">E-Prime Primary Realtime Clock</Description><StartTime><Timestamp dt:dt=""int"">0</Timestamp><DateUtc dt:dt=""string"">2013-05-13T18:00:00Z</DateUtc></StartTime><FrequencyChanges><FrequencyChange><Frequency dt:dt=""r8"">2857431</Frequency><Timestamp dt:dt=""r8"">4772491452034</Timestamp><Current dt:dt=""r8"">0</Current><DateUtc dt:dt=""string"">2013-05-13T18:00:00Z</DateUtc></FrequencyChange></FrequencyChanges></Clock>\n",60.002,1,782969916,5/13/2013,11:00:00,6:00:00 PM,female,1,Blockproc,SpeakerList,5,1,1,5,18,0,,-999999,38,235534,2,102,235636,SoundProc,,SecondSenarioList,4,2,8,,,,4,5_4_pan.wav,5_4_con.wav,
KoreanPoliteness_Perception_2_Hangul,31,1,24,"<?xml version=""1.0""?>\n<Clock xmlns:dt=""urn:schemas-microsoft-com:datatypes""><Description dt:dt=""string"">E-Prime Primary Realtime Clock</Description><StartTime><Timestamp dt:dt=""int"">0</Timestamp><DateUtc dt:dt=""string"">2013-05-13T18:00:00Z</DateUtc></StartTime><FrequencyChanges><FrequencyChange><Frequency dt:dt=""r8"">2857431</Frequency><Timestamp dt:dt=""r8"">4772491452034</Timestamp><Current dt:dt=""r8"">0</Current><DateUtc dt:dt=""string"">2013-05-13T18:00:00Z</DateUtc></FrequencyChange></FrequencyChanges></Clock>\n",60.002,1,782969916,5/13/2013,11:00:00,6:00:00 PM,female,1,Blockproc,SpeakerList,5,1,1,5,19,0,,-999999,28,242133,2,23,242156,SoundProc,,SecondSenarioList,3,2,9,,,,3,5_3_pan.wav,5_3_con.wav,
KoreanPoliteness_Perception_2_Hangul,31,1,24,"<?xml version=""1.0""?>\n<Clock xmlns:dt=""urn:schemas-microsoft-com:datatypes""><Description dt:dt=""string"">E-Prime Primary Realtime Clock</Description><StartTime><Timestamp dt:dt=""int"">0</Timestamp><DateUtc dt:dt=""string"">2013-05-13T18:00:00Z</DateUtc></StartTime><FrequencyChanges><FrequencyChange><Frequency dt:dt=""r8"">2857431</Frequency><Timestamp dt:dt=""r8"">4772491452034</Timestamp><Current dt:dt=""r8"">0</Current><DateUtc dt:dt=""string"">2013-05-13T18:00:00Z</DateUtc></FrequencyChange></FrequencyChanges></Clock>\n",60.002,1,782969916,5/13/2013,11:00:00,6:00:00 PM,female,1,Blockproc,SpeakerList,5,1,1,5,20,0,,-999999,34,247450,2,546,247996,SoundProc,,SecondSenarioList,6,2,10,,,,6,5_6_pan.wav,5_6_con.wav,
KoreanPoliteness_Perception_2_Hangul,31,1,24,"<?xml version=""1.0""?>\n<Clock xmlns:dt=""urn:schemas-microsoft-com:datatypes""><Description dt:dt=""string"">E-Prime Primary Realtime Clock</Description><StartTime><Timestamp dt:dt=""int"">0</Timestamp><DateUtc dt:dt=""string"">2013-05-13T18:00:00Z</DateUtc></StartTime><FrequencyChanges><FrequencyChange><Frequency dt:dt=""r8"">2857431</Frequency><Timestamp dt:dt=""r8"">4772491452034</Timestamp><Current dt:dt=""r8"">0</Current><DateUtc dt:dt=""string"">2013-05-13T18:00:00Z</DateUtc></FrequencyChange></FrequencyChanges></Clock>\n",60.002,1,782969916,5/13/2013,11:00:00,6:00:00 PM,female,2,Blockproc,SpeakerList,1,1,2,1,1,0,,-999999,31,261416,1,212,261628,SenarioProc,1,SenarioList,,,,1,2,11,1,1_1_con.wav,1_1_pan.wav,1_1_con.wav
KoreanPoliteness_Perception_2_Hangul,31,1,24,"<?xml version=""1.0""?>\n<Clock xmlns:dt=""urn:schemas-microsoft-com:datatypes""><Description dt:dt=""string"">E-Prime Primary Realtime Clock</Description><StartTime><Timestamp dt:dt=""int"">0</Timestamp><DateUtc dt:dt=""string"">2013-05-13T18:00:00Z</DateUtc></StartTime><FrequencyChanges><FrequencyChange><Frequency dt:dt=""r8"">2857431</Frequency><Timestamp dt:dt=""r8"">4772491452034</Timestamp><Current dt:dt=""r8"">0</Current><DateUtc dt:dt=""string"">2013-05-13T18:00:00Z</DateUtc></FrequencyChange></FrequencyChanges></Clock>\n",60.002,1,782969916,5/13/2013,11:00:00,6:00:00 PM,female,2,Blockproc,SpeakerList,1,1,2,1,2,0,,-999999,30,266466,1,58,266524,SenarioProc,1,SenarioList,,,,4,2,12,4,1_4_con.wav,1_4_pan.wav,1_4_con.wav
KoreanPoliteness_Perception_2_Hangul,31,1,24,"<?xml version=""1.0""?>\n<Clock xmlns:dt=""urn:schemas-microsoft-com:datatypes""><Description dt:dt=""string"">E-Prime Primary Realtime Clock</Description><StartTime><Timestamp dt:dt=""int"">0</Timestamp><DateUtc dt:dt=""string"">2013-05-13T18:00:00Z</DateUtc></StartTime><FrequencyChanges><FrequencyChange><Frequency dt:dt=""r8"">2857431</Frequency><Timestamp dt:dt=""r8"">4772491452034</Timestamp><Current dt:dt=""r8"">0</Current><DateUtc dt:dt=""string"">2013-05-13T18:00:00Z</DateUtc></FrequencyChange></FrequencyChanges></Clock>\n",60.002,1,782969916,5/13/2013,11:00:00,6:00:00 PM,female,2,Blockproc,SpeakerList,1,1,2,1,3,0,,-999999,31,271066,1,82,271148,SenarioProc,1,SenarioList,,,,2,2,13,2,1_2_con.wav,1_2_pan.wav,1_2_con.wav
KoreanPoliteness_Perception_2_Hangul,31,1,24,"<?xml version=""1.0""?>\n<Clock xmlns:dt=""urn:schemas-microsoft-com:datatypes""><Description dt:dt=""string"">E-Prime Primary Realtime Clock</Description><StartTime><Timestamp dt:dt=""int"">0</Timestamp><DateUtc dt:dt=""string"">2013-05-13T18:00:00Z</DateUtc></StartTime><FrequencyChanges><FrequencyChange><Frequency dt:dt=""r8"">2857431</Frequency><Timestamp dt:dt=""r8"">4772491452034</Timestamp><Current dt:dt=""r8"">0</Current><DateUtc dt:dt=""string"">2013-05-13T18:00:00Z</DateUtc></FrequencyChange></FrequencyChanges></Clock>\n",60.002,1,782969916,5/13/2013,11:00:00,6:00:00 PM,female,2,Blockproc,SpeakerList,1,1,2,1,4,0,,-999999,34,275999,1,477,276476,SenarioProc,1,SenarioList,,,,9,2,14,9,1_9_con.wav,1_9_pan.wav,1_9_con.wav
KoreanPoliteness_Perception_2_Hangul,31,1,24,"<?xml version=""1.0""?>\n<Clock xmlns:dt=""urn:schemas-microsoft-com:datatypes""><Description dt:dt=""string"">E-Prime Primary Realtime Clock</Description><StartTime><Timestamp dt:dt=""int"">0</Timestamp><DateUtc dt:dt=""string"">2013-05-13T18:00:00Z</DateUtc></StartTime><FrequencyChanges><FrequencyChange><Frequency dt:dt=""r8"">2857431</Frequency><Timestamp dt:dt=""r8"">4772491452034</Timestamp><Current dt:dt=""r8"">0</Current><DateUtc dt:dt=""string"">2013-05-13T18:00:00Z</DateUtc></FrequencyChange></FrequencyChanges></Clock>\n",60.002,1,782969916,5/13/2013,11:00:00,6:00:00 PM,female,2,Blockproc,SpeakerList,1,1,2,1,5,0,,-999999,34,281249,1,1067,282316,SenarioProc,1,SenarioList,,,,7,2,15,7,1_7_con.wav,1_7_pan.wav,1_7_con.wav
KoreanPoliteness_Perception_2_Hangul,31,1,24,"<?xml version=""1.0""?>\n<Clock xmlns:dt=""urn:schemas-microsoft-com:datatypes""><Description dt:dt=""string"">E-Prime Primary Realtime Clock</Description><StartTime><Timestamp dt:dt=""int"">0</Timestamp><DateUtc dt:dt=""string"">2013-05-13T18:00:00Z</DateUtc></StartTime><FrequencyChanges><FrequencyChange><Frequency dt:dt=""r8"">2857431</Frequency><Timestamp dt:dt=""r8"">4772491452034</Timestamp><Current dt:dt=""r8"">0</Current><DateUtc dt:dt=""string"">2013-05-13T18:00:00Z</DateUtc></FrequencyChange></FrequencyChanges></Clock>\n",60.002,1,782969916,5/13/2013,11:00:00,6:00:00 PM,female,2,Blockproc,SpeakerList,1,1,2,1,6,0,,-999999,33,287099,2,297,287396,SenarioProc,1,SenarioList,,,,8,2,16,8,1_8_con.wav,1_8_pan.wav,1_8_con.wav
KoreanPoliteness_Perception_2_Hangul,31,1,24,"<?xml version=""1.0""?>\n<Clock xmlns:dt=""urn:schemas-microsoft-com:datatypes""><Description dt:dt=""string"">E-Prime Primary Realtime Clock</Description><StartTime><Timestamp dt:dt=""int"">0</Timestamp><DateUtc dt:dt=""string"">2013-05-13T18:00:00Z</DateUtc></StartTime><FrequencyChanges><FrequencyChange><Frequency dt:dt=""r8"">2857431</Frequency><Timestamp dt:dt=""r8"">4772491452034</Timestamp><Current dt:dt=""r8"">0</Current><DateUtc dt:dt=""string"">2013-05-13T18:00:00Z</DateUtc></FrequencyChange></FrequencyChanges></Clock>\n",60.002,1,782969916,5/13/2013,11:00:00,6:00:00 PM,female,2,Blockproc,SpeakerList,1,1,2,1,7,0,,-999999,37,292132,1,240,292372,SenarioProc,1,SenarioList,,,,10,2,17,10,1_10_con.wav,1_10_pan.wav,1_10_con.wav
KoreanPoliteness_Perception_2_Hangul,31,1,24,"<?xml version=""1.0""?>\n<Clock xmlns:dt=""urn:schemas-microsoft-com:datatypes""><Description dt:dt=""string"">E-Prime Primary Realtime Clock</Description><StartTime><Timestamp dt:dt=""int"">0</Timestamp><DateUtc dt:dt=""string"">2013-05-13T18:00:00Z</DateUtc></StartTime><FrequencyChanges><FrequencyChange><Frequency dt:dt=""r8"">2857431</Frequency><Timestamp dt:dt=""r8"">4772491452034</Timestamp><Current dt:dt=""r8"">0</Current><DateUtc dt:dt=""string"">2013-05-13T18:00:00Z</DateUtc></FrequencyChange></FrequencyChanges></Clock>\n",60.002,1,782969916,5/13/2013,11:00:00,6:00:00 PM,female,2,Blockproc,SpeakerList,1,1,2,1,8,0,,-999999,37,297982,1,214,298196,SenarioProc,1,SenarioList,,,,3,2,18,3,1_3_con.wav,1_3_pan.wav,1_3_con.wav
KoreanPoliteness_Perception_2_Hangul,31,1,24,"<?xml version=""1.0""?>\n<Clock xmlns:dt=""urn:schemas-microsoft-com:datatypes""><Description dt:dt=""string"">E-Prime Primary Realtime Clock</Description><StartTime><Timestamp dt:dt=""int"">0</Timestamp><DateUtc dt:dt=""string"">2013-05-13T18:00:00Z</DateUtc></StartTime><FrequencyChanges><FrequencyChange><Frequency dt:dt=""r8"">2857431</Frequency><Timestamp dt:dt=""r8"">4772491452034</Timestamp><Current dt:dt=""r8"">0</Current><DateUtc dt:dt=""string"">2013-05-13T18:00:00Z</DateUtc></FrequencyChange></FrequencyChanges></Clock>\n",60.002,1,782969916,5/13/2013,11:00:00,6:00:00 PM,female,2,Blockproc,SpeakerList,1,1,2,1,9,0,,-999999,30,302965,1,527,303492,SenarioProc,1,SenarioList,,,,6,2,19,6,1_6_con.wav,1_6_pan.wav,1_6_con.wav
KoreanPoliteness_Perception_2_Hangul,31,1,24,"<?xml version=""1.0""?>\n<Clock xmlns:dt=""urn:schemas-microsoft-com:datatypes""><Description dt:dt=""string"">E-Prime Primary Realtime Clock</Description><StartTime><Timestamp dt:dt=""int"">0</Timestamp><DateUtc dt:dt=""string"">2013-05-13T18:00:00Z</DateUtc></StartTime><FrequencyChanges><FrequencyChange><Frequency dt:dt=""r8"">2857431</Frequency><Timestamp dt:dt=""r8"">4772491452034</Timestamp><Current dt:dt=""r8"">0</Current><DateUtc dt:dt=""string"">2013-05-13T18:00:00Z</DateUtc></FrequencyChange></FrequencyChanges></Clock>\n",60.002,1,782969916,5/13/2013,11:00:00,6:00:00 PM,female,2,Blockproc,SpeakerList,1,1,2,1,10,0,,-999999,33,309248,1,300,309548,SenarioProc,1,SenarioList,,,,5,2,20,5,1_5_con.wav,1_5_pan.wav,1_5_con.wav
KoreanPoliteness_Perception_2_Hangul,31,1,24,"<?xml version=""1.0""?>\n<Clock xmlns:dt=""urn:schemas-microsoft-com:datatypes""><Description dt:dt=""string"">E-Prime Primary Realtime Clock</Description><StartTime><Timestamp dt:dt=""int"">0</Timestamp><DateUtc dt:dt=""string"">2013-05-13T18:00:00Z</DateUtc></StartTime><FrequencyChanges><FrequencyChange><Frequency dt:dt=""r8"">2857431</Frequency><Timestamp dt:dt=""r8"">4772491452034</Timestamp><Current dt:dt=""r8"">0</Current><DateUtc dt:dt=""string"">2013-05-13T18:00:00Z</DateUtc></FrequencyChange></FrequencyChanges></Clock>\n",60.002,1,782969916,5/13/2013,11:00:00,6:00:00 PM,female,2,Blockproc,SpeakerList,1,1,2,1,11,0,,-999999,27,314282,2,202,314484,SoundProc,,SecondSenarioList,10,4,11,,,,10,1_10_pan.wav,1_10_con.wav,
KoreanPoliteness_Perception_2_Hangul,31,1,24,"<?xml version=""1.0""?>\n<Clock xmlns:dt=""urn:schemas-microsoft-com:datatypes""><Description dt:dt=""string"">E-Prime Primary Realtime Clock</Description><StartTime><Timestamp dt:dt=""int"">0</Timestamp><DateUtc dt:dt=""string"">2013-05-13T18:00:00Z</DateUtc></StartTime><FrequencyChanges><FrequencyChange><Frequency dt:dt=""r8"">2857431</Frequency><Timestamp dt:dt=""r8"">4772491452034</Timestamp><Current dt:dt=""r8"">0</Current><DateUtc dt:dt=""string"">2013-05-13T18:00:00Z</DateUtc></FrequencyChange></FrequencyChanges></Clock>\n",60.002,1,782969916,5/13/2013,11:00:00,6:00:00 PM,female,2,Blockproc,SpeakerList,1,1,2,1,12,0,,-999999,33,319348,1,583,319931,SoundProc,,SecondSenarioList,9,4,12,,,,9,1_9_pan.wav,1_9_con.wav,
KoreanPoliteness_Perception_2_Hangul,31,1,24,"<?xml version=""1.0""?>\n<Clock xmlns:dt=""urn:schemas-microsoft-com:datatypes""><Description dt:dt=""string"">E-Prime Primary Realtime Clock</Description><StartTime><Timestamp dt:dt=""int"">0</Timestamp><DateUtc dt:dt=""string"">2013-05-13T18:00:00Z</DateUtc></StartTime><FrequencyChanges><FrequencyChange><Frequency dt:dt=""r8"">2857431</Frequency><Timestamp dt:dt=""r8"">4772491452034</Timestamp><Current dt:dt=""r8"">0</Current><DateUtc dt:dt=""string"">2013-05-13T18:00:00Z</DateUtc></FrequencyChange></FrequencyChanges></Clock>\n",60.002,1,782969916,5/13/2013,11:00:00,6:00:00 PM,female,2,Blockproc,SpeakerList,1,1,2,1,13,0,,-999999,27,324731,1,304,325035,SoundProc,,SecondSenarioList,8,4,13,,,,8,1_8_pan.wav,1_8_con.wav,
KoreanPoliteness_Perception_2_Hangul,31,1,24,"<?xml version=""1.0""?>\n<Clock xmlns:dt=""urn:schemas-microsoft-com:datatypes""><Description dt:dt=""string"">E-Prime Primary Realtime Clock</Description><StartTime><Timestamp dt:dt=""int"">0</Timestamp><DateUtc dt:dt=""string"">2013-05-13T18:00:00Z</DateUtc></StartTime><FrequencyChanges><FrequencyChange><Frequency dt:dt=""r8"">2857431</Frequency><Timestamp dt:dt=""r8"">4772491452034</Timestamp><Current dt:dt=""r8"">0</Current><DateUtc dt:dt=""string"">2013-05-13T18:00:00Z</DateUtc></FrequencyChange></FrequencyChanges></Clock>\n",60.002,1,782969916,5/13/2013,11:00:00,6:00:00 PM,female,2,Blockproc,SpeakerList,1,1,2,1,14,0,,-999999,33,329848,2,275,330123,SoundProc,,SecondSenarioList,4,4,14,,,,4,1_4_pan.wav,1_4_con.wav,
KoreanPoliteness_Perception_2_Hangul,31,1,24,"<?xml version=""1.0""?>\n<Clock xmlns:dt=""urn:schemas-microsoft-com:datatypes""><Description dt:dt=""string"">E-Prime Primary Realtime Clock</Description><StartTime><Timestamp dt:dt=""int"">0</Timestamp><DateUtc dt:dt=""string"">2013-05-13T18:00:00Z</DateUtc></StartTime><FrequencyChanges><FrequencyChange><Frequency dt:dt=""r8"">2857431</Frequency><Timestamp dt:dt=""r8"">4772491452034</Timestamp><Current dt:dt=""r8"">0</Current><DateUtc dt:dt=""string"">2013-05-13T18:00:00Z</DateUtc></FrequencyChange></FrequencyChanges></Clock>\n",60.002,1,782969916,5/13/2013,11:00:00,6:00:00 PM,female,2,Blockproc,SpeakerList,1,1,2,1,15,0,,-999999,32,334697,2,434,335131,SoundProc,,SecondSenarioList,2,4,15,,,,2,1_2_pan.wav,1_2_con.wav,
KoreanPoliteness_Perception_2_Hangul,31,1,24,"<?xml version=""1.0""?>\n<Clock xmlns:dt=""urn:schemas-microsoft-com:datatypes""><Description dt:dt=""string"">E-Prime Primary Realtime Clock</Description><StartTime><Timestamp dt:dt=""int"">0</Timestamp><DateUtc dt:dt=""string"">2013-05-13T18:00:00Z</DateUtc></StartTime><FrequencyChanges><FrequencyChange><Frequency dt:dt=""r8"">2857431</Frequency><Timestamp dt:dt=""r8"">4772491452034</Timestamp><Current dt:dt=""r8"">0</Current><DateUtc dt:dt=""string"">2013-05-13T18:00:00Z</DateUtc></FrequencyChange></FrequencyChanges></Clock>\n",60.002,1,782969916,5/13/2013,11:00:00,6:00:00 PM,female,2,Blockproc,SpeakerList,1,1,2,1,16,0,,-999999,29,340714,2,169,340883,SoundProc,,SecondSenarioList,3,4,16,,,,3,1_3_pan.wav,1_3_con.wav,
KoreanPoliteness_Perception_2_Hangul,31,1,24,"<?xml version=""1.0""?>\n<Clock xmlns:dt=""urn:schemas-microsoft-com:datatypes""><Description dt:dt=""string"">E-Prime Primary Realtime Clock</Description><StartTime><Timestamp dt:dt=""int"">0</Timestamp><DateUtc dt:dt=""string"">2013-05-13T18:00:00Z</DateUtc></StartTime><FrequencyChanges><FrequencyChange><Frequency dt:dt=""r8"">2857431</Frequency><Timestamp dt:dt=""r8"">4772491452034</Timestamp><Current dt:dt=""r8"">0</Current><DateUtc dt:dt=""string"">2013-05-13T18:00:00Z</DateUtc></FrequencyChange></FrequencyChanges></Clock>\n",60.002,1,782969916,5/13/2013,11:00:00,6:00:00 PM,female,2,Blockproc,SpeakerList,1,1,2,1,17,0,,-999999,30,345614,2,333,345947,SoundProc,,SecondSenarioList,7,4,17,,,,7,1_7_pan.wav,1_7_con.wav,
KoreanPoliteness_Perception_2_Hangul,31,1,24,"<?xml version=""1.0""?>\n<Clock xmlns:dt=""urn:schemas-microsoft-com:datatypes""><Description dt:dt=""string"">E-Prime Primary Realtime Clock</Description><StartTime><Timestamp dt:dt=""int"">0</Timestamp><DateUtc dt:dt=""string"">2013-05-13T18:00:00Z</DateUtc></StartTime><FrequencyChanges><FrequencyChange><Frequency dt:dt=""r8"">2857431</Frequency><Timestamp dt:dt=""r8"">4772491452034</Timestamp><Current dt:dt=""r8"">0</Current><DateUtc dt:dt=""string"">2013-05-13T18:00:00Z</DateUtc></FrequencyChange></FrequencyChanges></Clock>\n",60.002,1,782969916,5/13/2013,11:00:00,6:00:00 PM,female,2,Blockproc,SpeakerList,1,1,2,1,18,0,,-999999,32,351697,2,34,351731,SoundProc,,SecondSenarioList,5,4,18,,,,5,1_5_pan.wav,1_5_con.wav,
KoreanPoliteness_Perception_2_Hangul,31,1,24,"<?xml version=""1.0""?>\n<Clock xmlns:dt=""urn:schemas-microsoft-com:datatypes""><Description dt:dt=""string"">E-Prime Primary Realtime Clock</Description><StartTime><Timestamp dt:dt=""int"">0</Timestamp><DateUtc dt:dt=""string"">2013-05-13T18:00:00Z</DateUtc></StartTime><FrequencyChanges><FrequencyChange><Frequency dt:dt=""r8"">2857431</Frequency><Timestamp dt:dt=""r8"">4772491452034</Timestamp><Current dt:dt=""r8"">0</Current><DateUtc dt:dt=""string"">2013-05-13T18:00:00Z</DateUtc></FrequencyChange></FrequencyChanges></Clock>\n",60.002,1,782969916,5/13/2013,11:00:00,6:00:00 PM,female,2,Blockproc,SpeakerList,1,1,2,1,19,0,,-999999,42,356197,2,126,356323,SoundProc,,SecondSenarioList,1,4,19,,,,1,1_1_pan.wav,1_1_con.wav,
KoreanPoliteness_Perception_2_Hangul,31,1,24,"<?xml version=""1.0""?>\n<Clock xmlns:dt=""urn:schemas-microsoft-com:datatypes""><Description dt:dt=""string"">E-Prime Primary Realtime Clock</Description><StartTime><Timestamp dt:dt=""int"">0</Timestamp><DateUtc dt:dt=""string"">2013-05-13T18:00:00Z</DateUtc></StartTime><FrequencyChanges><FrequencyChange><Frequency dt:dt=""r8"">2857431</Frequency><Timestamp dt:dt=""r8"">4772491452034</Timestamp><Current dt:dt=""r8"">0</Current><DateUtc dt:dt=""string"">2013-05-13T18:00:00Z</DateUtc></FrequencyChange></FrequencyChanges></Clock>\n",60.002,1,782969916,5/13/2013,11:00:00,6:00:00 PM,female,2,Blockproc,SpeakerList,1,1,2,1,20,0,,-999999,33,361097,2,586,361683,SoundProc,,SecondSenarioList,6,4,20,,,,6,1_6_pan.wav,1_6_con.wav,
KoreanPoliteness_Perception_2_Hangul,31,1,24,"<?xml version=""1.0""?>\n<Clock xmlns:dt=""urn:schemas-microsoft-com:datatypes""><Description dt:dt=""string"">E-Prime Primary Realtime Clock</Description><StartTime><Timestamp dt:dt=""int"">0</Timestamp><DateUtc dt:dt=""string"">2013-05-13T18:00:00Z</DateUtc></StartTime><FrequencyChanges><FrequencyChange><Frequency dt:dt=""r8"">2857431</Frequency><Timestamp dt:dt=""r8"">4772491452034</Timestamp><Current dt:dt=""r8"">0</Current><DateUtc dt:dt=""string"">2013-05-13T18:00:00Z</DateUtc></FrequencyChange></FrequencyChanges></Clock>\n",60.002,1,782969916,5/13/2013,11:00:00,6:00:00 PM,female,3,Blockproc,SpeakerList,8,1,3,8,1,0,,-999999,32,378246,2,517,378763,SenarioProc,1,SenarioList,,,,8,3,21,8,8_8_con.wav,8_8_pan.wav,8_8_con.wav
KoreanPoliteness_Perception_2_Hangul,31,1,24,"<?xml version=""1.0""?>\n<Clock xmlns:dt=""urn:schemas-microsoft-com:datatypes""><Description dt:dt=""string"">E-Prime Primary Realtime Clock</Description><StartTime><Timestamp dt:dt=""int"">0</Timestamp><DateUtc dt:dt=""string"">2013-05-13T18:00:00Z</DateUtc></StartTime><FrequencyChanges><FrequencyChange><Frequency dt:dt=""r8"">2857431</Frequency><Timestamp dt:dt=""r8"">4772491452034</Timestamp><Current dt:dt=""r8"">0</Current><DateUtc dt:dt=""string"">2013-05-13T18:00:00Z</DateUtc></FrequencyChange></FrequencyChanges></Clock>\n",60.002,1,782969916,5/13/2013,11:00:00,6:00:00 PM,female,3,Blockproc,SpeakerList,8,1,3,8,2,0,,-999999,35,383079,2,1228,384307,SenarioProc,2,SenarioList,,,,2,3,22,2,8_2_pan.wav,8_2_con.wav,8_2_pan.wav
KoreanPoliteness_Perception_2_Hangul,31,1,24,"<?xml version=""1.0""?>\n<Clock xmlns:dt=""urn:schemas-microsoft-com:datatypes""><Description dt:dt=""string"">E-Prime Primary Realtime Clock</Description><StartTime><Timestamp dt:dt=""int"">0</Timestamp><DateUtc dt:dt=""string"">2013-05-13T18:00:00Z</DateUtc></StartTime><FrequencyChanges><FrequencyChange><Frequency dt:dt=""r8"">2857431</Frequency><Timestamp dt:dt=""r8"">4772491452034</Timestamp><Current dt:dt=""r8"">0</Current><DateUtc dt:dt=""string"">2013-05-13T18:00:00Z</DateUtc></FrequencyChange></FrequencyChanges></Clock>\n",60.002,1,782969916,5/13/2013,11:00:00,6:00:00 PM,female,3,Blockproc,SpeakerList,8,1,3,8,3,0,,-999999,38,388512,1,275,388787,SenarioProc,2,SenarioList,,,,9,3,23,9,8_9_pan.wav,8_9_con.wav,8_9_pan.wav
KoreanPoliteness_Perception_2_Hangul,31,1,24,"<?xml version=""1.0""?>\n<Clock xmlns:dt=""urn:schemas-microsoft-com:datatypes""><Description dt:dt=""string"">E-Prime Primary Realtime Clock</Description><StartTime><Timestamp dt:dt=""int"">0</Timestamp><DateUtc dt:dt=""string"">2013-05-13T18:00:00Z</DateUtc></StartTime><FrequencyChanges><FrequencyChange><Frequency dt:dt=""r8"">2857431</Frequency><Timestamp dt:dt=""r8"">4772491452034</Timestamp><Current dt:dt=""r8"">0</Current><DateUtc dt:dt=""string"">2013-05-13T18:00:00Z</DateUtc></FrequencyChange></FrequencyChanges></Clock>\n",60.002,1,782969916,5/13/2013,11:00:00,6:00:00 PM,female,3,Blockproc,SpeakerList,8,1,3,8,4,0,,-999999,38,393462,2,741,394203,SenarioProc,1,SenarioList,,,,4,3,24,4,8_4_con.wav,8_4_pan.wav,8_4_con.wav
KoreanPoliteness_Perception_2_Hangul,31,1,24,"<?xml version=""1.0""?>\n<Clock xmlns:dt=""urn:schemas-microsoft-com:datatypes""><Description dt:dt=""string"">E-Prime Primary Realtime Clock</Description><StartTime><Timestamp dt:dt=""int"">0</Timestamp><DateUtc dt:dt=""string"">2013-05-13T18:00:00Z</DateUtc></StartTime><FrequencyChanges><FrequencyChange><Frequency dt:dt=""r8"">2857431</Frequency><Timestamp dt:dt=""r8"">4772491452034</Timestamp><Current dt:dt=""r8"">0</Current><DateUtc dt:dt=""string"">2013-05-13T18:00:00Z</DateUtc></FrequencyChange></FrequencyChanges></Clock>\n",60.002,1,782969916,5/13/2013,11:00:00,6:00:00 PM,female,3,Blockproc,SpeakerList,8,1,3,8,5,0,,-999999,35,398379,1,184,398563,SenarioProc,1,SenarioList,,,,1,3,25,1,8_1_con.wav,8_1_pan.wav,8_1_con.wav
KoreanPoliteness_Perception_2_Hangul,31,1,24,"<?xml version=""1.0""?>\n<Clock xmlns:dt=""urn:schemas-microsoft-com:datatypes""><Description dt:dt=""string"">E-Prime Primary Realtime Clock</Description><StartTime><Timestamp dt:dt=""int"">0</Timestamp><DateUtc dt:dt=""string"">2013-05-13T18:00:00Z</DateUtc></StartTime><FrequencyChanges><FrequencyChange><Frequency dt:dt=""r8"">2857431</Frequency><Timestamp dt:dt=""r8"">4772491452034</Timestamp><Current dt:dt=""r8"">0</Current><DateUtc dt:dt=""string"">2013-05-13T18:00:00Z</DateUtc></FrequencyChange></FrequencyChanges></Clock>\n",60.002,1,782969916,5/13/2013,11:00:00,6:00:00 PM,female,3,Blockproc,SpeakerList,8,1,3,8,6,0,,-999999,28,403012,2,207,403219,SenarioProc,2,SenarioList,,,,7,3,26,7,8_7_pan.wav,8_7_con.wav,8_7_pan.wav
KoreanPoliteness_Perception_2_Hangul,31,1,24,"<?xml version=""1.0""?>\n<Clock xmlns:dt=""urn:schemas-microsoft-com:datatypes""><Description dt:dt=""string"">E-Prime Primary Realtime Clock</Description><StartTime><Timestamp dt:dt=""int"">0</Timestamp><DateUtc dt:dt=""string"">2013-05-13T18:00:00Z</DateUtc></StartTime><FrequencyChanges><FrequencyChange><Frequency dt:dt=""r8"">2857431</Frequency><Timestamp dt:dt=""r8"">4772491452034</Timestamp><Current dt:dt=""r8"">0</Current><DateUtc dt:dt=""string"">2013-05-13T18:00:00Z</DateUtc></FrequencyChange></FrequencyChanges></Clock>\n",60.002,1,782969916,5/13/2013,11:00:00,6:00:00 PM,female,3,Blockproc,SpeakerList,8,1,3,8,7,0,,-999999,34,408278,1,165,408443,SenarioProc,1,SenarioList,,,,5,3,27,5,8_5_con.wav,8_5_pan.wav,8_5_con.wav
KoreanPoliteness_Perception_2_Hangul,31,1,24,"<?xml version=""1.0""?>\n<Clock xmlns:dt=""urn:schemas-microsoft-com:datatypes""><Description dt:dt=""string"">E-Prime Primary Realtime Clock</Description><StartTime><Timestamp dt:dt=""int"">0</Timestamp><DateUtc dt:dt=""string"">2013-05-13T18:00:00Z</DateUtc></StartTime><FrequencyChanges><FrequencyChange><Frequency dt:dt=""r8"">2857431</Frequency><Timestamp dt:dt=""r8"">4772491452034</Timestamp><Current dt:dt=""r8"">0</Current><DateUtc dt:dt=""string"">2013-05-13T18:00:00Z</DateUtc></FrequencyChange></FrequencyChanges></Clock>\n",60.002,1,782969916,5/13/2013,11:00:00,6:00:00 PM,female,3,Blockproc,SpeakerList,8,1,3,8,8,0,,-999999,41,413045,1,174,413219,SenarioProc,2,SenarioList,,,,6,3,28,6,8_6_pan.wav,8_6_con.wav,8_6_pan.wav
KoreanPoliteness_Perception_2_Hangul,31,1,24,"<?xml version=""1.0""?>\n<Clock xmlns:dt=""urn:schemas-microsoft-com:datatypes""><Description dt:dt=""string"">E-Prime Primary Realtime Clock</Description><StartTime><Timestamp dt:dt=""int"">0</Timestamp><DateUtc dt:dt=""string"">2013-05-13T18:00:00Z</DateUtc></StartTime><FrequencyChanges><FrequencyChange><Frequency dt:dt=""r8"">2857431</Frequency><Timestamp dt:dt=""r8"">4772491452034</Timestamp><Current dt:dt=""r8"">0</Current><DateUtc dt:dt=""string"">2013-05-13T18:00:00Z</DateUtc></FrequencyChange></FrequencyChanges></Clock>\n",60.002,1,782969916,5/13/2013,11:00:00,6:00:00 PM,female,3,Blockproc,SpeakerList,8,1,3,8,9,0,,-999999,31,417345,2,218,417563,SenarioProc,2,SenarioList,,,,10,3,29,10,8_10_pan.wav,8_10_con.wav,8_10_pan.wav
KoreanPoliteness_Perception_2_Hangul,31,1,24,"<?xml version=""1.0""?>\n<Clock xmlns:dt=""urn:schemas-microsoft-com:datatypes""><Description dt:dt=""string"">E-Prime Primary Realtime Clock</Description><StartTime><Timestamp dt:dt=""int"">0</Timestamp><DateUtc dt:dt=""string"">2013-05-13T18:00:00Z</DateUtc></StartTime><FrequencyChanges><FrequencyChange><Frequency dt:dt=""r8"">2857431</Frequency><Timestamp dt:dt=""r8"">4772491452034</Timestamp><Current dt:dt=""r8"">0</Current><DateUtc dt:dt=""string"">2013-05-13T18:00:00Z</DateUtc></FrequencyChange></FrequencyChanges></Clock>\n",60.002,1,782969916,5/13/2013,11:00:00,6:00:00 PM,female,3,Blockproc,SpeakerList,8,1,3,8,10,0,,-999999,37,423361,2,218,423579,SenarioProc,2,SenarioList,,,,3,3,30,3,8_3_pan.wav,8_3_con.wav,8_3_pan.wav
KoreanPoliteness_Perception_2_Hangul,31,1,24,"<?xml version=""1.0""?>\n<Clock xmlns:dt=""urn:schemas-microsoft-com:datatypes""><Description dt:dt=""string"">E-Prime Primary Realtime Clock</Description><StartTime><Timestamp dt:dt=""int"">0</Timestamp><DateUtc dt:dt=""string"">2013-05-13T18:00:00Z</DateUtc></StartTime><FrequencyChanges><FrequencyChange><Frequency dt:dt=""r8"">2857431</Frequency><Timestamp dt:dt=""r8"">4772491452034</Timestamp><Current dt:dt=""r8"">0</Current><DateUtc dt:dt=""string"">2013-05-13T18:00:00Z</DateUtc></FrequencyChange></FrequencyChanges></Clock>\n",60.002,1,782969916,5/13/2013,11:00:00,6:00:00 PM,female,3,Blockproc,SpeakerList,8,1,3,8,11,0,,-999999,31,427695,1,475,428170,SoundProc,,SecondSenarioList,10,6,21,,,,10,8_10_con.wav,8_10_pan.wav,
KoreanPoliteness_Perception_2_Hangul,31,1,24,"<?xml version=""1.0""?>\n<Clock xmlns:dt=""urn:schemas-microsoft-com:datatypes""><Description dt:dt=""string"">E-Prime Primary Realtime Clock</Description><StartTime><Timestamp dt:dt=""int"">0</Timestamp><DateUtc dt:dt=""string"">2013-05-13T18:00:00Z</DateUtc></StartTime><FrequencyChanges><FrequencyChange><Frequency dt:dt=""r8"">2857431</Frequency><Timestamp dt:dt=""r8"">4772491452034</Timestamp><Current dt:dt=""r8"">0</Current><DateUtc dt:dt=""string"">2013-05-13T18:00:00Z</DateUtc></FrequencyChange></FrequencyChanges></Clock>\n",60.002,1,782969916,5/13/2013,11:00:00,6:00:00 PM,female,3,Blockproc,SpeakerList,8,1,3,8,12,0,,-999999,35,432528,1,650,433178,SoundProc,,SecondSenarioList,2,6,22,,,,2,8_2_con.wav,8_2_pan.wav,
KoreanPoliteness_Perception_2_Hangul,31,1,24,"<?xml version=""1.0""?>\n<Clock xmlns:dt=""urn:schemas-microsoft-com:datatypes""><Description dt:dt=""string"">E-Prime Primary Realtime Clock</Description><StartTime><Timestamp dt:dt=""int"">0</Timestamp><DateUtc dt:dt=""string"">2013-05-13T18:00:00Z</DateUtc></StartTime><FrequencyChanges><FrequencyChange><Frequency dt:dt=""r8"">2857431</Frequency><Timestamp dt:dt=""r8"">4772491452034</Timestamp><Current dt:dt=""r8"">0</Current><DateUtc dt:dt=""string"">2013-05-13T18:00:00Z</DateUtc></FrequencyChange></FrequencyChanges></Clock>\n",60.002,1,782969916,5/13/2013,11:00:00,6:00:00 PM,female,3,Blockproc,SpeakerList,8,1,3,8,13,0,,-999999,27,437361,1,945,438306,SoundProc,,SecondSenarioList,9,6,23,,,,9,8_9_con.wav,8_9_pan.wav,
KoreanPoliteness_Perception_2_Hangul,31,1,24,"<?xml version=""1.0""?>\n<Clock xmlns:dt=""urn:schemas-microsoft-com:datatypes""><Description dt:dt=""string"">E-Prime Primary Realtime Clock</Description><StartTime><Timestamp dt:dt=""int"">0</Timestamp><DateUtc dt:dt=""string"">2013-05-13T18:00:00Z</DateUtc></StartTime><FrequencyChanges><FrequencyChange><Frequency dt:dt=""r8"">2857431</Frequency><Timestamp dt:dt=""r8"">4772491452034</Timestamp><Current dt:dt=""r8"">0</Current><DateUtc dt:dt=""string"">2013-05-13T18:00:00Z</DateUtc></FrequencyChange></FrequencyChanges></Clock>\n",60.002,1,782969916,5/13/2013,11:00:00,6:00:00 PM,female,3,Blockproc,SpeakerList,8,1,3,8,14,0,,-999999,30,442994,2,248,443242,SoundProc,,SecondSenarioList,4,6,24,,,,4,8_4_pan.wav,8_4_con.wav,
KoreanPoliteness_Perception_2_Hangul,31,1,24,"<?xml version=""1.0""?>\n<Clock xmlns:dt=""urn:schemas-microsoft-com:datatypes""><Description dt:dt=""string"">E-Prime Primary Realtime Clock</Description><StartTime><Timestamp dt:dt=""int"">0</Timestamp><DateUtc dt:dt=""string"">2013-05-13T18:00:00Z</DateUtc></StartTime><FrequencyChanges><FrequencyChange><Frequency dt:dt=""r8"">2857431</Frequency><Timestamp dt:dt=""r8"">4772491452034</Timestamp><Current dt:dt=""r8"">0</Current><DateUtc dt:dt=""string"">2013-05-13T18:00:00Z</DateUtc></FrequencyChange></FrequencyChanges></Clock>\n",60.002,1,782969916,5/13/2013,11:00:00,6:00:00 PM,female,3,Blockproc,SpeakerList,8,1,3,8,15,0,,-999999,31,447644,1,286,447930,SoundProc,,SecondSenarioList,8,6,25,,,,8,8_8_pan.wav,8_8_con.wav,
KoreanPoliteness_Perception_2_Hangul,31,1,24,"<?xml version=""1.0""?>\n<Clock xmlns:dt=""urn:schemas-microsoft-com:datatypes""><Description dt:dt=""string"">E-Prime Primary Realtime Clock</Description><StartTime><Timestamp dt:dt=""int"">0</Timestamp><DateUtc dt:dt=""string"">2013-05-13T18:00:00Z</DateUtc></StartTime><FrequencyChanges><FrequencyChange><Frequency dt:dt=""r8"">2857431</Frequency><Timestamp dt:dt=""r8"">4772491452034</Timestamp><Current dt:dt=""r8"">0</Current><DateUtc dt:dt=""string"">2013-05-13T18:00:00Z</DateUtc></FrequencyChange></FrequencyChanges></Clock>\n",60.002,1,782969916,5/13/2013,11:00:00,6:00:00 PM,female,3,Blockproc,SpeakerList,8,1,3,8,16,0,,-999999,31,452494,1,700,453194,SoundProc,,SecondSenarioList,6,6,26,,,,6,8_6_con.wav,8_6_pan.wav,
KoreanPoliteness_Perception_2_Hangul,31,1,24,"<?xml version=""1.0""?>\n<Clock xmlns:dt=""urn:schemas-microsoft-com:datatypes""><Description dt:dt=""string"">E-Prime Primary Realtime Clock</Description><StartTime><Timestamp dt:dt=""int"">0</Timestamp><DateUtc dt:dt=""string"">2013-05-13T18:00:00Z</DateUtc></StartTime><FrequencyChanges><FrequencyChange><Frequency dt:dt=""r8"">2857431</Frequency><Timestamp dt:dt=""r8"">4772491452034</Timestamp><Current dt:dt=""r8"">0</Current><DateUtc dt:dt=""string"">2013-05-13T18:00:00Z</DateUtc></FrequencyChange></FrequencyChanges></Clock>\n",60.002,1,782969916,5/13/2013,11:00:00,6:00:00 PM,female,3,Blockproc,SpeakerList,8,1,3,8,17,0,,-999999,36,458960,1,322,459282,SoundProc,,SecondSenarioList,3,6,27,,,,3,8_3_con.wav,8_3_pan.wav,
KoreanPoliteness_Perception_2_Hangul,31,1,24,"<?xml version=""1.0""?>\n<Clock xmlns:dt=""urn:schemas-microsoft-com:datatypes""><Description dt:dt=""string"">E-Prime Primary Realtime Clock</Description><StartTime><Timestamp dt:dt=""int"">0</Timestamp><DateUtc dt:dt=""string"">2013-05-13T18:00:00Z</DateUtc></StartTime><FrequencyChanges><FrequencyChange><Frequency dt:dt=""r8"">2857431</Frequency><Timestamp dt:dt=""r8"">4772491452034</Timestamp><Current dt:dt=""r8"">0</Current><DateUtc dt:dt=""string"">2013-05-13T18:00:00Z</DateUtc></FrequencyChange></FrequencyChanges></Clock>\n",60.002,1,782969916,5/13/2013,11:00:00,6:00:00 PM,female,3,Blockproc,SpeakerList,8,1,3,8,18,0,,-999999,34,463727,2,651,464378,SoundProc,,SecondSenarioList,7,6,28,,,,7,8_7_con.wav,8_7_pan.wav,
KoreanPoliteness_Perception_2_Hangul,31,1,24,"<?xml version=""1.0""?>\n<Clock xmlns:dt=""urn:schemas-microsoft-com:datatypes""><Description dt:dt=""string"">E-Prime Primary Realtime Clock</Description><StartTime><Timestamp dt:dt=""int"">0</Timestamp><DateUtc dt:dt=""string"">2013-05-13T18:00:00Z</DateUtc></StartTime><FrequencyChanges><FrequencyChange><Frequency dt:dt=""r8"">2857431</Frequency><Timestamp dt:dt=""r8"">4772491452034</Timestamp><Current dt:dt=""r8"">0</Current><DateUtc dt:dt=""string"">2013-05-13T18:00:00Z</DateUtc></FrequencyChange></FrequencyChanges></Clock>\n",60.002,1,782969916,5/13/2013,11:00:00,6:00:00 PM,female,3,Blockproc,SpeakerList,8,1,3,8,19,0,,-999999,40,469493,2,1173,470666,SoundProc,,SecondSenarioList,5,6,29,,,,5,8_5_pan.wav,8_5_con.wav,
KoreanPoliteness_Perception_2_Hangul,31,1,24,"<?xml version=""1.0""?>\n<Clock xmlns:dt=""urn:schemas-microsoft-com:datatypes""><Description dt:dt=""string"">E-Prime Primary Realtime Clock</Description><StartTime><Timestamp dt:dt=""int"">0</Timestamp><DateUtc dt:dt=""string"">2013-05-13T18:00:00Z</DateUtc></StartTime><FrequencyChanges><FrequencyChange><Frequency dt:dt=""r8"">2857431</Frequency><Timestamp dt:dt=""r8"">4772491452034</Timestamp><Current dt:dt=""r8"">0</Current><DateUtc dt:dt=""string"">2013-05-13T18:00:00Z</DateUtc></FrequencyChange></FrequencyChanges></Clock>\n",60.002,1,782969916,5/13/2013,11:00:00,6:00:00 PM,female,3,Blockproc,SpeakerList,8,1,3,8,20,0,,-999999,32,474826,2,232,475058,SoundProc,,SecondSenarioList,1,6,30,,,,1,8_1_pan.wav,8_1_con.wav,
KoreanPoliteness_Perception_2_Hangul,31,1,24,"<?xml version=""1.0""?>\n<Clock xmlns:dt=""urn:schemas-microsoft-com:datatypes""><Description dt:dt=""string"">E-Prime Primary Realtime Clock</Description><StartTime><Timestamp dt:dt=""int"">0</Timestamp><DateUtc dt:dt=""string"">2013-05-13T18:00:00Z</DateUtc></StartTime><FrequencyChanges><FrequencyChange><Frequency dt:dt=""r8"">2857431</Frequency><Timestamp dt:dt=""r8"">4772491452034</Timestamp><Current dt:dt=""r8"">0</Current><DateUtc dt:dt=""string"">2013-05-13T18:00:00Z</DateUtc></FrequencyChange></FrequencyChanges></Clock>\n",60.002,1,782969916,5/13/2013,11:00:00,6:00:00 PM,female,4,Blockproc,SpeakerList,7,1,4,7,1,0,,-999999,34,502676,1,294,502970,SenarioProc,1,SenarioList,,,,1,4,31,1,7_1_con.wav,7_1_pan.wav,7_1_con.wav
KoreanPoliteness_Perception_2_Hangul,31,1,24,"<?xml version=""1.0""?>\n<Clock xmlns:dt=""urn:schemas-microsoft-com:datatypes""><Description dt:dt=""string"">E-Prime Primary Realtime Clock</Description><StartTime><Timestamp dt:dt=""int"">0</Timestamp><DateUtc dt:dt=""string"">2013-05-13T18:00:00Z</DateUtc></StartTime><FrequencyChanges><FrequencyChange><Frequency dt:dt=""r8"">2857431</Frequency><Timestamp dt:dt=""r8"">4772491452034</Timestamp><Current dt:dt=""r8"">0</Current><DateUtc dt:dt=""string"">2013-05-13T18:00:00Z</DateUtc></FrequencyChange></FrequencyChanges></Clock>\n",60.002,1,782969916,5/13/2013,11:00:00,6:00:00 PM,female,4,Blockproc,SpeakerList,7,1,4,7,2,0,,-999999,40,507942,1,276,508218,SenarioProc,2,SenarioList,,,,8,4,32,8,7_8_pan.wav,7_8_con.wav,7_8_pan.wav
KoreanPoliteness_Perception_2_Hangul,31,1,24,"<?xml version=""1.0""?>\n<Clock xmlns:dt=""urn:schemas-microsoft-com:datatypes""><Description dt:dt=""string"">E-Prime Primary Realtime Clock</Description><StartTime><Timestamp dt:dt=""int"">0</Timestamp><DateUtc dt:dt=""string"">2013-05-13T18:00:00Z</DateUtc></StartTime><FrequencyChanges><FrequencyChange><Frequency dt:dt=""r8"">2857431</Frequency><Timestamp dt:dt=""r8"">4772491452034</Timestamp><Current dt:dt=""r8"">0</Current><DateUtc dt:dt=""string"">2013-05-13T18:00:00Z</DateUtc></FrequencyChange></FrequencyChanges></Clock>\n",60.002,1,782969916,5/13/2013,11:00:00,6:00:00 PM,female,4,Blockproc,SpeakerList,7,1,4,7,3,0,,-999999,37,513259,1,1199,514458,SenarioProc,1,SenarioList,,,,4,4,33,4,7_4_con.wav,7_4_pan.wav,7_4_con.wav
KoreanPoliteness_Perception_2_Hangul,31,1,24,"<?xml version=""1.0""?>\n<Clock xmlns:dt=""urn:schemas-microsoft-com:datatypes""><Description dt:dt=""string"">E-Prime Primary Realtime Clock</Description><StartTime><Timestamp dt:dt=""int"">0</Timestamp><DateUtc dt:dt=""string"">2013-05-13T18:00:00Z</DateUtc></StartTime><FrequencyChanges><FrequencyChange><Frequency dt:dt=""r8"">2857431</Frequency><Timestamp dt:dt=""r8"">4772491452034</Timestamp><Current dt:dt=""r8"">0</Current><DateUtc dt:dt=""string"">2013-05-13T18:00:00Z</DateUtc></FrequencyChange></FrequencyChanges></Clock>\n",60.002,1,782969916,5/13/2013,11:00:00,6:00:00 PM,female,4,Blockproc,SpeakerList,7,1,4,7,4,0,,-999999,32,519425,1,689,520114,SenarioProc,1,SenarioList,,,,10,4,34,10,7_10_con.wav,7_10_pan.wav,7_10_con.wav
KoreanPoliteness_Perception_2_Hangul,31,1,24,"<?xml version=""1.0""?>\n<Clock xmlns:dt=""urn:schemas-microsoft-com:datatypes""><Description dt:dt=""string"">E-Prime Primary Realtime Clock</Description><StartTime><Timestamp dt:dt=""int"">0</Timestamp><DateUtc dt:dt=""string"">2013-05-13T18:00:00Z</DateUtc></StartTime><FrequencyChanges><FrequencyChange><Frequency dt:dt=""r8"">2857431</Frequency><Timestamp dt:dt=""r8"">4772491452034</Timestamp><Current dt:dt=""r8"">0</Current><DateUtc dt:dt=""string"">2013-05-13T18:00:00Z</DateUtc></FrequencyChange></FrequencyChanges></Clock>\n",60.002,1,782969916,5/13/2013,11:00:00,6:00:00 PM,female,4,Blockproc,SpeakerList,7,1,4,7,5,0,,-999999,40,526942,2,340,527282,SenarioProc,1,SenarioList,,,,3,4,35,3,7_3_con.wav,7_3_pan.wav,7_3_con.wav
KoreanPoliteness_Perception_2_Hangul,31,1,24,"<?xml version=""1.0""?>\n<Clock xmlns:dt=""urn:schemas-microsoft-com:datatypes""><Description dt:dt=""string"">E-Prime Primary Realtime Clock</Description><StartTime><Timestamp dt:dt=""int"">0</Timestamp><DateUtc dt:dt=""string"">2013-05-13T18:00:00Z</DateUtc></StartTime><FrequencyChanges><FrequencyChange><Frequency dt:dt=""r8"">2857431</Frequency><Timestamp dt:dt=""r8"">4772491452034</Timestamp><Current dt:dt=""r8"">0</Current><DateUtc dt:dt=""string"">2013-05-13T18:00:00Z</DateUtc></FrequencyChange></FrequencyChanges></Clock>\n",60.002,1,782969916,5/13/2013,11:00:00,6:00:00 PM,female,4,Blockproc,SpeakerList,7,1,4,7,6,0,,-999999,29,531991,2,1914,533905,SenarioProc,1,SenarioList,,,,2,4,36,2,7_2_con.wav,7_2_pan.wav,7_2_con.wav
KoreanPoliteness_Perception_2_Hangul,31,1,24,"<?xml version=""1.0""?>\n<Clock xmlns:dt=""urn:schemas-microsoft-com:datatypes""><Description dt:dt=""string"">E-Prime Primary Realtime Clock</Description><StartTime><Timestamp dt:dt=""int"">0</Timestamp><DateUtc dt:dt=""string"">2013-05-13T18:00:00Z</DateUtc></StartTime><FrequencyChanges><FrequencyChange><Frequency dt:dt=""r8"">2857431</Frequency><Timestamp dt:dt=""r8"">4772491452034</Timestamp><Current dt:dt=""r8"">0</Current><DateUtc dt:dt=""string"">2013-05-13T18:00:00Z</DateUtc></FrequencyChange></FrequencyChanges></Clock>\n",60.002,1,782969916,5/13/2013,11:00:00,6:00:00 PM,female,4,Blockproc,SpeakerList,7,1,4,7,7,0,,-999999,33,538975,1,1458,540433,SenarioProc,2,SenarioList,,,,7,4,37,7,7_7_pan.wav,7_7_con.wav,7_7_pan.wav
KoreanPoliteness_Perception_2_Hangul,31,1,24,"<?xml version=""1.0""?>\n<Clock xmlns:dt=""urn:schemas-microsoft-com:datatypes""><Description dt:dt=""string"">E-Prime Primary Realtime Clock</Description><StartTime><Timestamp dt:dt=""int"">0</Timestamp><DateUtc dt:dt=""string"">2013-05-13T18:00:00Z</DateUtc></StartTime><FrequencyChanges><FrequencyChange><Frequency dt:dt=""r8"">2857431</Frequency><Timestamp dt:dt=""r8"">4772491452034</Timestamp><Current dt:dt=""r8"">0</Current><DateUtc dt:dt=""string"">2013-05-13T18:00:00Z</DateUtc></FrequencyChange></FrequencyChanges></Clock>\n",60.002,1,782969916,5/13/2013,11:00:00,6:00:00 PM,female,4,Blockproc,SpeakerList,7,1,4,7,8,0,,-999999,32,545624,1,2161,547785,SenarioProc,1,SenarioList,,,,6,4,38,6,7_6_con.wav,7_6_pan.wav,7_6_con.wav
KoreanPoliteness_Perception_2_Hangul,31,1,24,"<?xml version=""1.0""?>\n<Clock xmlns:dt=""urn:schemas-microsoft-com:datatypes""><Description dt:dt=""string"">E-Prime Primary Realtime Clock</Description><StartTime><Timestamp dt:dt=""int"">0</Timestamp><DateUtc dt:dt=""string"">2013-05-13T18:00:00Z</DateUtc></StartTime><FrequencyChanges><FrequencyChange><Frequency dt:dt=""r8"">2857431</Frequency><Timestamp dt:dt=""r8"">4772491452034</Timestamp><Current dt:dt=""r8"">0</Current><DateUtc dt:dt=""string"">2013-05-13T18:00:00Z</DateUtc></FrequencyChange></FrequencyChanges></Clock>\n",60.002,1,782969916,5/13/2013,11:00:00,6:00:00 PM,female,4,Blockproc,SpeakerList,7,1,4,7,9,0,,-999999,39,552791,1,1266,554057,SenarioProc,1,SenarioList,,,,9,4,39,9,7_9_con.wav,7_9_pan.wav,7_9_con.wav
KoreanPoliteness_Perception_2_Hangul,31,1,24,"<?xml version=""1.0""?>\n<Clock xmlns:dt=""urn:schemas-microsoft-com:datatypes""><Description dt:dt=""string"">E-Prime Primary Realtime Clock</Description><StartTime><Timestamp dt:dt=""int"">0</Timestamp><DateUtc dt:dt=""string"">2013-05-13T18:00:00Z</DateUtc></StartTime><FrequencyChanges><FrequencyChange><Frequency dt:dt=""r8"">2857431</Frequency><Timestamp dt:dt=""r8"">4772491452034</Timestamp><Current dt:dt=""r8"">0</Current><DateUtc dt:dt=""string"">2013-05-13T18:00:00Z</DateUtc></FrequencyChange></FrequencyChanges></Clock>\n",60.002,1,782969916,5/13/2013,11:00:00,6:00:00 PM,female,4,Blockproc,SpeakerList,7,1,4,7,10,0,,-999999,32,560674,2,335,561009,SenarioProc,2,SenarioList,,,,5,4,40,5,7_5_pan.wav,7_5_con.wav,7_5_pan.wav
KoreanPoliteness_Perception_2_Hangul,31,1,24,"<?xml version=""1.0""?>\n<Clock xmlns:dt=""urn:schemas-microsoft-com:datatypes""><Description dt:dt=""string"">E-Prime Primary Realtime Clock</Description><StartTime><Timestamp dt:dt=""int"">0</Timestamp><DateUtc dt:dt=""string"">2013-05-13T18:00:00Z</DateUtc></StartTime><FrequencyChanges><FrequencyChange><Frequency dt:dt=""r8"">2857431</Frequency><Timestamp dt:dt=""r8"">4772491452034</Timestamp><Current dt:dt=""r8"">0</Current><DateUtc dt:dt=""string"">2013-05-13T18:00:00Z</DateUtc></FrequencyChange></FrequencyChanges></Clock>\n",60.002,1,782969916,5/13/2013,11:00:00,6:00:00 PM,female,4,Blockproc,SpeakerList,7,1,4,7,11,0,,-999999,35,565707,2,1174,566881,SoundProc,,SecondSenarioList,2,8,31,,,,2,7_2_pan.wav,7_2_con.wav,
KoreanPoliteness_Perception_2_Hangul,31,1,24,"<?xml version=""1.0""?>\n<Clock xmlns:dt=""urn:schemas-microsoft-com:datatypes""><Description dt:dt=""string"">E-Prime Primary Realtime Clock</Description><StartTime><Timestamp dt:dt=""int"">0</Timestamp><DateUtc dt:dt=""string"">2013-05-13T18:00:00Z</DateUtc></StartTime><FrequencyChanges><FrequencyChange><Frequency dt:dt=""r8"">2857431</Frequency><Timestamp dt:dt=""r8"">4772491452034</Timestamp><Current dt:dt=""r8"">0</Current><DateUtc dt:dt=""string"">2013-05-13T18:00:00Z</DateUtc></FrequencyChange></FrequencyChanges></Clock>\n",60.002,1,782969916,5/13/2013,11:00:00,6:00:00 PM,female,4,Blockproc,SpeakerList,7,1,4,7,12,0,,-999999,42,571374,2,1851,573225,SoundProc,,SecondSenarioList,1,8,32,,,,1,7_1_pan.wav,7_1_con.wav,
KoreanPoliteness_Perception_2_Hangul,31,1,24,"<?xml version=""1.0""?>\n<Clock xmlns:dt=""urn:schemas-microsoft-com:datatypes""><Description dt:dt=""string"">E-Prime Primary Realtime Clock</Description><StartTime><Timestamp dt:dt=""int"">0</Timestamp><DateUtc dt:dt=""string"">2013-05-13T18:00:00Z</DateUtc></StartTime><FrequencyChanges><FrequencyChange><Frequency dt:dt=""r8"">2857431</Frequency><Timestamp dt:dt=""r8"">4772491452034</Timestamp><Current dt:dt=""r8"">0</Current><DateUtc dt:dt=""string"">2013-05-13T18:00:00Z</DateUtc></FrequencyChange></FrequencyChanges></Clock>\n",60.002,1,782969916,5/13/2013,11:00:00,6:00:00 PM,female,4,Blockproc,SpeakerList,7,1,4,7,13,0,,-999999,38,580040,1,161,580201,SoundProc,,SecondSenarioList,3,8,33,,,,3,7_3_pan.wav,7_3_con.wav,
KoreanPoliteness_Perception_2_Hangul,31,1,24,"<?xml version=""1.0""?>\n<Clock xmlns:dt=""urn:schemas-microsoft-com:datatypes""><Description dt:dt=""string"">E-Prime Primary Realtime Clock</Description><StartTime><Timestamp dt:dt=""int"">0</Timestamp><DateUtc dt:dt=""string"">2013-05-13T18:00:00Z</DateUtc></StartTime><FrequencyChanges><FrequencyChange><Frequency dt:dt=""r8"">2857431</Frequency><Timestamp dt:dt=""r8"">4772491452034</Timestamp><Current dt:dt=""r8"">0</Current><DateUtc dt:dt=""string"">2013-05-13T18:00:00Z</DateUtc></FrequencyChange></FrequencyChanges></Clock>\n",60.002,1,782969916,5/13/2013,11:00:00,6:00:00 PM,female,4,Blockproc,SpeakerList,7,1,4,7,14,0,,-999999,31,585173,1,764,585937,SoundProc,,SecondSenarioList,8,8,34,,,,8,7_8_con.wav,7_8_pan.wav,
KoreanPoliteness_Perception_2_Hangul,31,1,24,"<?xml version=""1.0""?>\n<Clock xmlns:dt=""urn:schemas-microsoft-com:datatypes""><Description dt:dt=""string"">E-Prime Primary Realtime Clock</Description><StartTime><Timestamp dt:dt=""int"">0</Timestamp><DateUtc dt:dt=""string"">2013-05-13T18:00:00Z</DateUtc></StartTime><FrequencyChanges><FrequencyChange><Frequency dt:dt=""r8"">2857431</Frequency><Timestamp dt:dt=""r8"">4772491452034</Timestamp><Current dt:dt=""r8"">0</Current><DateUtc dt:dt=""string"">2013-05-13T18:00:00Z</DateUtc></FrequencyChange></FrequencyChanges></Clock>\n",60.002,1,782969916,5/13/2013,11:00:00,6:00:00 PM,female,4,Blockproc,SpeakerList,7,1,4,7,15,0,,-999999,29,590940,1,757,591697,SoundProc,,SecondSenarioList,9,8,35,,,,9,7_9_pan.wav,7_9_con.wav,
KoreanPoliteness_Perception_2_Hangul,31,1,24,"<?xml version=""1.0""?>\n<Clock xmlns:dt=""urn:schemas-microsoft-com:datatypes""><Description dt:dt=""string"">E-Prime Primary Realtime Clock</Description><StartTime><Timestamp dt:dt=""int"">0</Timestamp><DateUtc dt:dt=""string"">2013-05-13T18:00:00Z</DateUtc></StartTime><FrequencyChanges><FrequencyChange><Frequency dt:dt=""r8"">2857431</Frequency><Timestamp dt:dt=""r8"">4772491452034</Timestamp><Current dt:dt=""r8"">0</Current><DateUtc dt:dt=""string"">2013-05-13T18:00:00Z</DateUtc></FrequencyChange></FrequencyChanges></Clock>\n",60.002,1,782969916,5/13/2013,11:00:00,6:00:00 PM,female,4,Blockproc,SpeakerList,7,1,4,7,16,0,,-999999,28,596889,1,200,597089,SoundProc,,SecondSenarioList,6,8,36,,,,6,7_6_pan.wav,7_6_con.wav,
KoreanPoliteness_Perception_2_Hangul,31,1,24,"<?xml version=""1.0""?>\n<Clock xmlns:dt=""urn:schemas-microsoft-com:datatypes""><Description dt:dt=""string"">E-Prime Primary Realtime Clock</Description><StartTime><Timestamp dt:dt=""int"">0</Timestamp><DateUtc dt:dt=""string"">2013-05-13T18:00:00Z</DateUtc></StartTime><FrequencyChanges><FrequencyChange><Frequency dt:dt=""r8"">2857431</Frequency><Timestamp dt:dt=""r8"">4772491452034</Timestamp><Current dt:dt=""r8"">0</Current><DateUtc dt:dt=""string"">2013-05-13T18:00:00Z</DateUtc></FrequencyChange></FrequencyChanges></Clock>\n",60.002,1,782969916,5/13/2013,11:00:00,6:00:00 PM,female,4,Blockproc,SpeakerList,7,1,4,7,17,0,,-999999,27,602039,1,626,602665,SoundProc,,SecondSenarioList,10,8,37,,,,10,7_10_pan.wav,7_10_con.wav,
KoreanPoliteness_Perception_2_Hangul,31,1,24,"<?xml version=""1.0""?>\n<Clock xmlns:dt=""urn:schemas-microsoft-com:datatypes""><Description dt:dt=""string"">E-Prime Primary Realtime Clock</Description><StartTime><Timestamp dt:dt=""int"">0</Timestamp><DateUtc dt:dt=""string"">2013-05-13T18:00:00Z</DateUtc></StartTime><FrequencyChanges><FrequencyChange><Frequency dt:dt=""r8"">2857431</Frequency><Timestamp dt:dt=""r8"">4772491452034</Timestamp><Current dt:dt=""r8"">0</Current><DateUtc dt:dt=""string"">2013-05-13T18:00:00Z</DateUtc></FrequencyChange></FrequencyChanges></Clock>\n",60.002,1,782969916,5/13/2013,11:00:00,6:00:00 PM,female,4,Blockproc,SpeakerList,7,1,4,7,18,0,,-999999,41,607722,1,423,608145,SoundProc,,SecondSenarioList,4,8,38,,,,4,7_4_pan.wav,7_4_con.wav,
KoreanPoliteness_Perception_2_Hangul,31,1,24,"<?xml version=""1.0""?>\n<Clock xmlns:dt=""urn:schemas-microsoft-com:datatypes""><Description dt:dt=""string"">E-Prime Primary Realtime Clock</Description><StartTime><Timestamp dt:dt=""int"">0</Timestamp><DateUtc dt:dt=""string"">2013-05-13T18:00:00Z</DateUtc></StartTime><FrequencyChanges><FrequencyChange><Frequency dt:dt=""r8"">2857431</Frequency><Timestamp dt:dt=""r8"">4772491452034</Timestamp><Current dt:dt=""r8"">0</Current><DateUtc dt:dt=""string"">2013-05-13T18:00:00Z</DateUtc></FrequencyChange></FrequencyChanges></Clock>\n",60.002,1,782969916,5/13/2013,11:00:00,6:00:00 PM,female,4,Blockproc,SpeakerList,7,1,4,7,19,0,,-999999,28,614739,2,382,615121,SoundProc,,SecondSenarioList,5,8,39,,,,5,7_5_con.wav,7_5_pan.wav,
KoreanPoliteness_Perception_2_Hangul,31,1,24,"<?xml version=""1.0""?>\n<Clock xmlns:dt=""urn:schemas-microsoft-com:datatypes""><Description dt:dt=""string"">E-Prime Primary Realtime Clock</Description><StartTime><Timestamp dt:dt=""int"">0</Timestamp><DateUtc dt:dt=""string"">2013-05-13T18:00:00Z</DateUtc></StartTime><FrequencyChanges><FrequencyChange><Frequency dt:dt=""r8"">2857431</Frequency><Timestamp dt:dt=""r8"">4772491452034</Timestamp><Current dt:dt=""r8"">0</Current><DateUtc dt:dt=""string"">2013-05-13T18:00:00Z</DateUtc></FrequencyChange></FrequencyChanges></Clock>\n",60.002,1,782969916,5/13/2013,11:00:00,6:00:00 PM,female,4,Blockproc,SpeakerList,7,1,4,7,20,0,,-999999,28,620189,2,460,620649,SoundProc,,SecondSenarioList,7,8,40,,,,7,7_7_con.wav,7_7_pan.wav,
KoreanPoliteness_Perception_2_Hangul,31,1,24,"<?xml version=""1.0""?>\n<Clock xmlns:dt=""urn:schemas-microsoft-com:datatypes""><Description dt:dt=""string"">E-Prime Primary Realtime Clock</Description><StartTime><Timestamp dt:dt=""int"">0</Timestamp><DateUtc dt:dt=""string"">2013-05-13T18:00:00Z</DateUtc></StartTime><FrequencyChanges><FrequencyChange><Frequency dt:dt=""r8"">2857431</Frequency><Timestamp dt:dt=""r8"">4772491452034</Timestamp><Current dt:dt=""r8"">0</Current><DateUtc dt:dt=""string"">2013-05-13T18:00:00Z</DateUtc></FrequencyChange></FrequencyChanges></Clock>\n",60.002,1,782969916,5/13/2013,11:00:00,6:00:00 PM,female,5,Blockproc,SpeakerList,2,1,5,2,1,0,,-999999,37,639888,2,968,640856,SenarioProc,1,SenarioList,,,,9,5,41,9,2_9_con.wav,2_9_pan.wav,2_9_con.wav
KoreanPoliteness_Perception_2_Hangul,31,1,24,"<?xml version=""1.0""?>\n<Clock xmlns:dt=""urn:schemas-microsoft-com:datatypes""><Description dt:dt=""string"">E-Prime Primary Realtime Clock</Description><StartTime><Timestamp dt:dt=""int"">0</Timestamp><DateUtc dt:dt=""string"">2013-05-13T18:00:00Z</DateUtc></StartTime><FrequencyChanges><FrequencyChange><Frequency dt:dt=""r8"">2857431</Frequency><Timestamp dt:dt=""r8"">4772491452034</Timestamp><Current dt:dt=""r8"">0</Current><DateUtc dt:dt=""string"">2013-05-13T18:00:00Z</DateUtc></FrequencyChange></FrequencyChanges></Clock>\n",60.002,1,782969916,5/13/2013,11:00:00,6:00:00 PM,female,5,Blockproc,SpeakerList,2,1,5,2,2,0,,-999999,27,646638,1,1634,648272,SenarioProc,1,SenarioList,,,,4,5,42,4,2_4_con.wav,2_4_pan.wav,2_4_con.wav
KoreanPoliteness_Perception_2_Hangul,31,1,24,"<?xml version=""1.0""?>\n<Clock xmlns:dt=""urn:schemas-microsoft-com:datatypes""><Description dt:dt=""string"">E-Prime Primary Realtime Clock</Description><StartTime><Timestamp dt:dt=""int"">0</Timestamp><DateUtc dt:dt=""string"">2013-05-13T18:00:00Z</DateUtc></StartTime><FrequencyChanges><FrequencyChange><Frequency dt:dt=""r8"">2857431</Frequency><Timestamp dt:dt=""r8"">4772491452034</Timestamp><Current dt:dt=""r8"">0</Current><DateUtc dt:dt=""string"">2013-05-13T18:00:00Z</DateUtc></FrequencyChange></FrequencyChanges></Clock>\n",60.002,1,782969916,5/13/2013,11:00:00,6:00:00 PM,female,5,Blockproc,SpeakerList,2,1,5,2,3,0,,-999999,30,653171,1,1765,654936,SenarioProc,1,SenarioList,,,,2,5,43,2,2_2_con.wav,2_2_pan.wav,2_2_con.wav
KoreanPoliteness_Perception_2_Hangul,31,1,24,"<?xml version=""1.0""?>\n<Clock xmlns:dt=""urn:schemas-microsoft-com:datatypes""><Description dt:dt=""string"">E-Prime Primary Realtime Clock</Description><StartTime><Timestamp dt:dt=""int"">0</Timestamp><DateUtc dt:dt=""string"">2013-05-13T18:00:00Z</DateUtc></StartTime><FrequencyChanges><FrequencyChange><Frequency dt:dt=""r8"">2857431</Frequency><Timestamp dt:dt=""r8"">4772491452034</Timestamp><Current dt:dt=""r8"">0</Current><DateUtc dt:dt=""string"">2013-05-13T18:00:00Z</DateUtc></FrequencyChange></FrequencyChanges></Clock>\n",60.002,1,782969916,5/13/2013,11:00:00,6:00:00 PM,female,5,Blockproc,SpeakerList,2,1,5,2,4,0,,-999999,34,660354,1,254,660608,SenarioProc,1,SenarioList,,,,7,5,44,7,2_7_con.wav,2_7_pan.wav,2_7_con.wav
KoreanPoliteness_Perception_2_Hangul,31,1,24,"<?xml version=""1.0""?>\n<Clock xmlns:dt=""urn:schemas-microsoft-com:datatypes""><Description dt:dt=""string"">E-Prime Primary Realtime Clock</Description><StartTime><Timestamp dt:dt=""int"">0</Timestamp><DateUtc dt:dt=""string"">2013-05-13T18:00:00Z</DateUtc></StartTime><FrequencyChanges><FrequencyChange><Frequency dt:dt=""r8"">2857431</Frequency><Timestamp dt:dt=""r8"">4772491452034</Timestamp><Current dt:dt=""r8"">0</Current><DateUtc dt:dt=""string"">2013-05-13T18:00:00Z</DateUtc></FrequencyChange></FrequencyChanges></Clock>\n",60.002,1,782969916,5/13/2013,11:00:00,6:00:00 PM,female,5,Blockproc,SpeakerList,2,1,5,2,5,0,,-999999,40,665971,1,1413,667384,SenarioProc,1,SenarioList,,,,10,5,45,10,2_10_con.wav,2_10_pan.wav,2_10_con.wav
KoreanPoliteness_Perception_2_Hangul,31,1,24,"<?xml version=""1.0""?>\n<Clock xmlns:dt=""urn:schemas-microsoft-com:datatypes""><Description dt:dt=""string"">E-Prime Primary Realtime Clock</Description><StartTime><Timestamp dt:dt=""int"">0</Timestamp><DateUtc dt:dt=""string"">2013-05-13T18:00:00Z</DateUtc></StartTime><FrequencyChanges><FrequencyChange><Frequency dt:dt=""r8"">2857431</Frequency><Timestamp dt:dt=""r8"">4772491452034</Timestamp><Current dt:dt=""r8"">0</Current><DateUtc dt:dt=""string"">2013-05-13T18:00:00Z</DateUtc></FrequencyChange></FrequencyChanges></Clock>\n",60.002,1,782969916,5/13/2013,11:00:00,6:00:00 PM,female,5,Blockproc,SpeakerList,2,1,5,2,6,0,,-999999,40,672071,2,681,672752,SenarioProc,2,SenarioList,,,,8,5,46,8,2_8_pan.wav,2_8_con.wav,2_8_pan.wav
KoreanPoliteness_Perception_2_Hangul,31,1,24,"<?xml version=""1.0""?>\n<Clock xmlns:dt=""urn:schemas-microsoft-com:datatypes""><Description dt:dt=""string"">E-Prime Primary Realtime Clock</Description><StartTime><Timestamp dt:dt=""int"">0</Timestamp><DateUtc dt:dt=""string"">2013-05-13T18:00:00Z</DateUtc></StartTime><FrequencyChanges><FrequencyChange><Frequency dt:dt=""r8"">2857431</Frequency><Timestamp dt:dt=""r8"">4772491452034</Timestamp><Current dt:dt=""r8"">0</Current><DateUtc dt:dt=""string"">2013-05-13T18:00:00Z</DateUtc></FrequencyChange></FrequencyChanges></Clock>\n",60.002,1,782969916,5/13/2013,11:00:00,6:00:00 PM,female,5,Blockproc,SpeakerList,2,1,5,2,7,0,,-999999,37,678687,2,297,678984,SenarioProc,2,SenarioList,,,,6,5,47,6,2_6_pan.wav,2_6_con.wav,2_6_pan.wav
KoreanPoliteness_Perception_2_Hangul,31,1,24,"<?xml version=""1.0""?>\n<Clock xmlns:dt=""urn:schemas-microsoft-com:datatypes""><Description dt:dt=""string"">E-Prime Primary Realtime Clock</Description><StartTime><Timestamp dt:dt=""int"">0</Timestamp><DateUtc dt:dt=""string"">2013-05-13T18:00:00Z</DateUtc></StartTime><FrequencyChanges><FrequencyChange><Frequency dt:dt=""r8"">2857431</Frequency><Timestamp dt:dt=""r8"">4772491452034</Timestamp><Current dt:dt=""r8"">0</Current><DateUtc dt:dt=""string"">2013-05-13T18:00:00Z</DateUtc></FrequencyChange></FrequencyChanges></Clock>\n",60.002,1,782969916,5/13/2013,11:00:00,6:00:00 PM,female,5,Blockproc,SpeakerList,2,1,5,2,8,0,,-999999,29,684870,1,266,685136,SenarioProc,1,SenarioList,,,,5,5,48,5,2_5_con.wav,2_5_pan.wav,2_5_con.wav
KoreanPoliteness_Perception_2_Hangul,31,1,24,"<?xml version=""1.0""?>\n<Clock xmlns:dt=""urn:schemas-microsoft-com:datatypes""><Description dt:dt=""string"">E-Prime Primary Realtime Clock</Description><StartTime><Timestamp dt:dt=""int"">0</Timestamp><DateUtc dt:dt=""string"">2013-05-13T18:00:00Z</DateUtc></StartTime><FrequencyChanges><FrequencyChange><Frequency dt:dt=""r8"">2857431</Frequency><Timestamp dt:dt=""r8"">4772491452034</Timestamp><Current dt:dt=""r8"">0</Current><DateUtc dt:dt=""string"">2013-05-13T18:00:00Z</DateUtc></FrequencyChange></FrequencyChanges></Clock>\n",60.002,1,782969916,5/13/2013,11:00:00,6:00:00 PM,female,5,Blockproc,SpeakerList,2,1,5,2,9,0,,-999999,36,692337,1,295,692632,SenarioProc,1,SenarioList,,,,3,5,49,3,2_3_con.wav,2_3_pan.wav,2_3_con.wav
KoreanPoliteness_Perception_2_Hangul,31,1,24,"<?xml version=""1.0""?>\n<Clock xmlns:dt=""urn:schemas-microsoft-com:datatypes""><Description dt:dt=""string"">E-Prime Primary Realtime Clock</Description><StartTime><Timestamp dt:dt=""int"">0</Timestamp><DateUtc dt:dt=""string"">2013-05-13T18:00:00Z</DateUtc></StartTime><FrequencyChanges><FrequencyChange><Frequency dt:dt=""r8"">2857431</Frequency><Timestamp dt:dt=""r8"">4772491452034</Timestamp><Current dt:dt=""r8"">0</Current><DateUtc dt:dt=""string"">2013-05-13T18:00:00Z</DateUtc></FrequencyChange></FrequencyChanges></Clock>\n",60.002,1,782969916,5/13/2013,11:00:00,6:00:00 PM,female,5,Blockproc,SpeakerList,2,1,5,2,10,0,,-999999,36,697586,2,294,697880,SenarioProc,2,SenarioList,,,,1,5,50,1,2_1_pan.wav,2_1_con.wav,2_1_pan.wav
KoreanPoliteness_Perception_2_Hangul,31,1,24,"<?xml version=""1.0""?>\n<Clock xmlns:dt=""urn:schemas-microsoft-com:datatypes""><Description dt:dt=""string"">E-Prime Primary Realtime Clock</Description><StartTime><Timestamp dt:dt=""int"">0</Timestamp><DateUtc dt:dt=""string"">2013-05-13T18:00:00Z</DateUtc></StartTime><FrequencyChanges><FrequencyChange><Frequency dt:dt=""r8"">2857431</Frequency><Timestamp dt:dt=""r8"">4772491452034</Timestamp><Current dt:dt=""r8"">0</Current><DateUtc dt:dt=""string"">2013-05-13T18:00:00Z</DateUtc></FrequencyChange></FrequencyChanges></Clock>\n",60.002,1,782969916,5/13/2013,11:00:00,6:00:00 PM,female,5,Blockproc,SpeakerList,2,1,5,2,11,0,,-999999,43,703003,2,317,703320,SoundProc,,SecondSenarioList,9,10,41,,,,9,2_9_pan.wav,2_9_con.wav,
KoreanPoliteness_Perception_2_Hangul,31,1,24,"<?xml version=""1.0""?>\n<Clock xmlns:dt=""urn:schemas-microsoft-com:datatypes""><Description dt:dt=""string"">E-Prime Primary Realtime Clock</Description><StartTime><Timestamp dt:dt=""int"">0</Timestamp><DateUtc dt:dt=""string"">2013-05-13T18:00:00Z</DateUtc></StartTime><FrequencyChanges><FrequencyChange><Frequency dt:dt=""r8"">2857431</Frequency><Timestamp dt:dt=""r8"">4772491452034</Timestamp><Current dt:dt=""r8"">0</Current><DateUtc dt:dt=""string"">2013-05-13T18:00:00Z</DateUtc></FrequencyChange></FrequencyChanges></Clock>\n",60.002,1,782969916,5/13/2013,11:00:00,6:00:00 PM,female,5,Blockproc,SpeakerList,2,1,5,2,12,0,,-999999,42,709103,2,257,709360,SoundProc,,SecondSenarioList,4,10,42,,,,4,2_4_pan.wav,2_4_con.wav,
KoreanPoliteness_Perception_2_Hangul,31,1,24,"<?xml version=""1.0""?>\n<Clock xmlns:dt=""urn:schemas-microsoft-com:datatypes""><Description dt:dt=""string"">E-Prime Primary Realtime Clock</Description><StartTime><Timestamp dt:dt=""int"">0</Timestamp><DateUtc dt:dt=""string"">2013-05-13T18:00:00Z</DateUtc></StartTime><FrequencyChanges><FrequencyChange><Frequency dt:dt=""r8"">2857431</Frequency><Timestamp dt:dt=""r8"">4772491452034</Timestamp><Current dt:dt=""r8"">0</Current><DateUtc dt:dt=""string"">2013-05-13T18:00:00Z</DateUtc></FrequencyChange></FrequencyChanges></Clock>\n",60.002,1,782969916,5/13/2013,11:00:00,6:00:00 PM,female,5,Blockproc,SpeakerList,2,1,5,2,13,0,,-999999,36,715236,2,196,715432,SoundProc,,SecondSenarioList,5,10,43,,,,5,2_5_pan.wav,2_5_con.wav,
KoreanPoliteness_Perception_2_Hangul,31,1,24,"<?xml version=""1.0""?>\n<Clock xmlns:dt=""urn:schemas-microsoft-com:datatypes""><Description dt:dt=""string"">E-Prime Primary Realtime Clock</Description><StartTime><Timestamp dt:dt=""int"">0</Timestamp><DateUtc dt:dt=""string"">2013-05-13T18:00:00Z</DateUtc></StartTime><FrequencyChanges><FrequencyChange><Frequency dt:dt=""r8"">2857431</Frequency><Timestamp dt:dt=""r8"">4772491452034</Timestamp><Current dt:dt=""r8"">0</Current><DateUtc dt:dt=""string"">2013-05-13T18:00:00Z</DateUtc></FrequencyChange></FrequencyChanges></Clock>\n",60.002,1,782969916,5/13/2013,11:00:00,6:00:00 PM,female,5,Blockproc,SpeakerList,2,1,5,2,14,0,,-999999,36,720836,2,220,721056,SoundProc,,SecondSenarioList,7,10,44,,,,7,2_7_pan.wav,2_7_con.wav,
KoreanPoliteness_Perception_2_Hangul,31,1,24,"<?xml version=""1.0""?>\n<Clock xmlns:dt=""urn:schemas-microsoft-com:datatypes""><Description dt:dt=""string"">E-Prime Primary Realtime Clock</Description><StartTime><Timestamp dt:dt=""int"">0</Timestamp><DateUtc dt:dt=""string"">2013-05-13T18:00:00Z</DateUtc></StartTime><FrequencyChanges><FrequencyChange><Frequency dt:dt=""r8"">2857431</Frequency><Timestamp dt:dt=""r8"">4772491452034</Timestamp><Current dt:dt=""r8"">0</Current><DateUtc dt:dt=""string"">2013-05-13T18:00:00Z</DateUtc></FrequencyChange></FrequencyChanges></Clock>\n",60.002,1,782969916,5/13/2013,11:00:00,6:00:00 PM,female,5,Blockproc,SpeakerList,2,1,5,2,15,0,,-999999,35,726436,2,188,726624,SoundProc,,SecondSenarioList,10,10,45,,,,10,2_10_pan.wav,2_10_con.wav,
KoreanPoliteness_Perception_2_Hangul,31,1,24,"<?xml version=""1.0""?>\n<Clock xmlns:dt=""urn:schemas-microsoft-com:datatypes""><Description dt:dt=""string"">E-Prime Primary Realtime Clock</Description><StartTime><Timestamp dt:dt=""int"">0</Timestamp><DateUtc dt:dt=""string"">2013-05-13T18:00:00Z</DateUtc></StartTime><FrequencyChanges><FrequencyChange><Frequency dt:dt=""r8"">2857431</Frequency><Timestamp dt:dt=""r8"">4772491452034</Timestamp><Current dt:dt=""r8"">0</Current><DateUtc dt:dt=""string"">2013-05-13T18:00:00Z</DateUtc></FrequencyChange></FrequencyChanges></Clock>\n",60.002,1,782969916,5/13/2013,11:00:00,6:00:00 PM,female,5,Blockproc,SpeakerList,2,1,5,2,16,0,,-999999,32,732552,1,480,733032,SoundProc,,SecondSenarioList,6,10,46,,,,6,2_6_con.wav,2_6_pan.wav,
KoreanPoliteness_Perception_2_Hangul,31,1,24,"<?xml version=""1.0""?>\n<Clock xmlns:dt=""urn:schemas-microsoft-com:datatypes""><Description dt:dt=""string"">E-Prime Primary Realtime Clock</Description><StartTime><Timestamp dt:dt=""int"">0</Timestamp><DateUtc dt:dt=""string"">2013-05-13T18:00:00Z</DateUtc></StartTime><FrequencyChanges><FrequencyChange><Frequency dt:dt=""r8"">2857431</Frequency><Timestamp dt:dt=""r8"">4772491452034</Timestamp><Current dt:dt=""r8"">0</Current><DateUtc dt:dt=""string"">2013-05-13T18:00:00Z</DateUtc></FrequencyChange></FrequencyChanges></Clock>\n",60.002,1,782969916,5/13/2013,11:00:00,6:00:00 PM,female,5,Blockproc,SpeakerList,2,1,5,2,17,0,,-999999,42,737702,2,1362,739064,SoundProc,,SecondSenarioList,8,10,47,,,,8,2_8_con.wav,2_8_pan.wav,
KoreanPoliteness_Perception_2_Hangul,31,1,24,"<?xml version=""1.0""?>\n<Clock xmlns:dt=""urn:schemas-microsoft-com:datatypes""><Description dt:dt=""string"">E-Prime Primary Realtime Clock</Description><StartTime><Timestamp dt:dt=""int"">0</Timestamp><DateUtc dt:dt=""string"">2013-05-13T18:00:00Z</DateUtc></StartTime><FrequencyChanges><FrequencyChange><Frequency dt:dt=""r8"">2857431</Frequency><Timestamp dt:dt=""r8"">4772491452034</Timestamp><Current dt:dt=""r8"">0</Current><DateUtc dt:dt=""string"">2013-05-13T18:00:00Z</DateUtc></FrequencyChange></FrequencyChanges></Clock>\n",60.002,1,782969916,5/13/2013,11:00:00,6:00:00 PM,female,5,Blockproc,SpeakerList,2,1,5,2,18,0,,-999999,38,744018,1,294,744312,SoundProc,,SecondSenarioList,1,10,48,,,,1,2_1_con.wav,2_1_pan.wav,
KoreanPoliteness_Perception_2_Hangul,31,1,24,"<?xml version=""1.0""?>\n<Clock xmlns:dt=""urn:schemas-microsoft-com:datatypes""><Description dt:dt=""string"">E-Prime Primary Realtime Clock</Description><StartTime><Timestamp dt:dt=""int"">0</Timestamp><DateUtc dt:dt=""string"">2013-05-13T18:00:00Z</DateUtc></StartTime><FrequencyChanges><FrequencyChange><Frequency dt:dt=""r8"">2857431</Frequency><Timestamp dt:dt=""r8"">4772491452034</Timestamp><Current dt:dt=""r8"">0</Current><DateUtc dt:dt=""string"">2013-05-13T18:00:00Z</DateUtc></FrequencyChange></FrequencyChanges></Clock>\n",60.002,1,782969916,5/13/2013,11:00:00,6:00:00 PM,female,5,Blockproc,SpeakerList,2,1,5,2,19,0,,-999999,41,751501,2,314,751815,SoundProc,,SecondSenarioList,3,10,49,,,,3,2_3_pan.wav,2_3_con.wav,
KoreanPoliteness_Perception_2_Hangul,31,1,24,"<?xml version=""1.0""?>\n<Clock xmlns:dt=""urn:schemas-microsoft-com:datatypes""><Description dt:dt=""string"">E-Prime Primary Realtime Clock</Description><StartTime><Timestamp dt:dt=""int"">0</Timestamp><DateUtc dt:dt=""string"">2013-05-13T18:00:00Z</DateUtc></StartTime><FrequencyChanges><FrequencyChange><Frequency dt:dt=""r8"">2857431</Frequency><Timestamp dt:dt=""r8"">4772491452034</Timestamp><Current dt:dt=""r8"">0</Current><DateUtc dt:dt=""string"">2013-05-13T18:00:00Z</DateUtc></FrequencyChange></FrequencyChanges></Clock>\n",60.002,1,782969916,5/13/2013,11:00:00,6:00:00 PM,female,5,Blockproc,SpeakerList,2,1,5,2,20,0,,-999999,28,756718,2,1689,758407,SoundProc,,SecondSenarioList,2,10,50,,,,2,2_2_pan.wav,2_2_con.wav,
KoreanPoliteness_Perception_2_Hangul,31,1,24,"<?xml version=""1.0""?>\n<Clock xmlns:dt=""urn:schemas-microsoft-com:datatypes""><Description dt:dt=""string"">E-Prime Primary Realtime Clock</Description><StartTime><Timestamp dt:dt=""int"">0</Timestamp><DateUtc dt:dt=""string"">2013-05-13T18:00:00Z</DateUtc></StartTime><FrequencyChanges><FrequencyChange><Frequency dt:dt=""r8"">2857431</Frequency><Timestamp dt:dt=""r8"">4772491452034</Timestamp><Current dt:dt=""r8"">0</Current><DateUtc dt:dt=""string"">2013-05-13T18:00:00Z</DateUtc></FrequencyChange></FrequencyChanges></Clock>\n",60.002,1,782969916,5/13/2013,11:00:00,6:00:00 PM,female,6,Blockproc,SpeakerList,4,1,6,4,1,0,,-999999,28,786117,1,1650,787767,SenarioProc,2,SenarioList,,,,2,6,51,2,4_2_pan.wav,4_2_con.wav,4_2_pan.wav
KoreanPoliteness_Perception_2_Hangul,31,1,24,"<?xml version=""1.0""?>\n<Clock xmlns:dt=""urn:schemas-microsoft-com:datatypes""><Description dt:dt=""string"">E-Prime Primary Realtime Clock</Description><StartTime><Timestamp dt:dt=""int"">0</Timestamp><DateUtc dt:dt=""string"">2013-05-13T18:00:00Z</DateUtc></StartTime><FrequencyChanges><FrequencyChange><Frequency dt:dt=""r8"">2857431</Frequency><Timestamp dt:dt=""r8"">4772491452034</Timestamp><Current dt:dt=""r8"">0</Current><DateUtc dt:dt=""string"">2013-05-13T18:00:00Z</DateUtc></FrequencyChange></FrequencyChanges></Clock>\n",60.002,1,782969916,5/13/2013,11:00:00,6:00:00 PM,female,6,Blockproc,SpeakerList,4,1,6,4,2,0,,-999999,40,794050,2,485,794535,SenarioProc,1,SenarioList,,,,4,6,52,4,4_4_con.wav,4_4_pan.wav,4_4_con.wav
KoreanPoliteness_Perception_2_Hangul,31,1,24,"<?xml version=""1.0""?>\n<Clock xmlns:dt=""urn:schemas-microsoft-com:datatypes""><Description dt:dt=""string"">E-Prime Primary Realtime Clock</Description><StartTime><Timestamp dt:dt=""int"">0</Timestamp><DateUtc dt:dt=""string"">2013-05-13T18:00:00Z</DateUtc></StartTime><FrequencyChanges><FrequencyChange><Frequency dt:dt=""r8"">2857431</Frequency><Timestamp dt:dt=""r8"">4772491452034</Timestamp><Current dt:dt=""r8"">0</Current><DateUtc dt:dt=""string"">2013-05-13T18:00:00Z</DateUtc></FrequencyChange></FrequencyChanges></Clock>\n",60.002,1,782969916,5/13/2013,11:00:00,6:00:00 PM,female,6,Blockproc,SpeakerList,4,1,6,4,3,0,,-999999,40,801500,2,243,801743,SenarioProc,2,SenarioList,,,,5,6,53,5,4_5_pan.wav,4_5_con.wav,4_5_pan.wav
KoreanPoliteness_Perception_2_Hangul,31,1,24,"<?xml version=""1.0""?>\n<Clock xmlns:dt=""urn:schemas-microsoft-com:datatypes""><Description dt:dt=""string"">E-Prime Primary Realtime Clock</Description><StartTime><Timestamp dt:dt=""int"">0</Timestamp><DateUtc dt:dt=""string"">2013-05-13T18:00:00Z</DateUtc></StartTime><FrequencyChanges><FrequencyChange><Frequency dt:dt=""r8"">2857431</Frequency><Timestamp dt:dt=""r8"">4772491452034</Timestamp><Current dt:dt=""r8"">0</Current><DateUtc dt:dt=""string"">2013-05-13T18:00:00Z</DateUtc></FrequencyChange></FrequencyChanges></Clock>\n",60.002,1,782969916,5/13/2013,11:00:00,6:00:00 PM,female,6,Blockproc,SpeakerList,4,1,6,4,4,0,,-999999,41,808000,2,895,808895,SenarioProc,2,SenarioList,,,,10,6,54,10,4_10_pan.wav,4_10_con.wav,4_10_pan.wav
KoreanPoliteness_Perception_2_Hangul,31,1,24,"<?xml version=""1.0""?>\n<Clock xmlns:dt=""urn:schemas-microsoft-com:datatypes""><Description dt:dt=""string"">E-Prime Primary Realtime Clock</Description><StartTime><Timestamp dt:dt=""int"">0</Timestamp><DateUtc dt:dt=""string"">2013-05-13T18:00:00Z</DateUtc></StartTime><FrequencyChanges><FrequencyChange><Frequency dt:dt=""r8"">2857431</Frequency><Timestamp dt:dt=""r8"">4772491452034</Timestamp><Current dt:dt=""r8"">0</Current><DateUtc dt:dt=""string"">2013-05-13T18:00:00Z</DateUtc></FrequencyChange></FrequencyChanges></Clock>\n",60.002,1,782969916,5/13/2013,11:00:00,6:00:00 PM,female,6,Blockproc,SpeakerList,4,1,6,4,5,0,,-999999,40,815200,1,543,815743,SenarioProc,1,SenarioList,,,,9,6,55,9,4_9_con.wav,4_9_pan.wav,4_9_con.wav
KoreanPoliteness_Perception_2_Hangul,31,1,24,"<?xml version=""1.0""?>\n<Clock xmlns:dt=""urn:schemas-microsoft-com:datatypes""><Description dt:dt=""string"">E-Prime Primary Realtime Clock</Description><StartTime><Timestamp dt:dt=""int"">0</Timestamp><DateUtc dt:dt=""string"">2013-05-13T18:00:00Z</DateUtc></StartTime><FrequencyChanges><FrequencyChange><Frequency dt:dt=""r8"">2857431</Frequency><Timestamp dt:dt=""r8"">4772491452034</Timestamp><Current dt:dt=""r8"">0</Current><DateUtc dt:dt=""string"">2013-05-13T18:00:00Z</DateUtc></FrequencyChange></FrequencyChanges></Clock>\n",60.002,1,782969916,5/13/2013,11:00:00,6:00:00 PM,female,6,Blockproc,SpeakerList,4,1,6,4,6,0,,-999999,40,821549,2,970,822519,SenarioProc,1,SenarioList,,,,8,6,56,8,4_8_con.wav,4_8_pan.wav,4_8_con.wav
KoreanPoliteness_Perception_2_Hangul,31,1,24,"<?xml version=""1.0""?>\n<Clock xmlns:dt=""urn:schemas-microsoft-com:datatypes""><Description dt:dt=""string"">E-Prime Primary Realtime Clock</Description><StartTime><Timestamp dt:dt=""int"">0</Timestamp><DateUtc dt:dt=""string"">2013-05-13T18:00:00Z</DateUtc></StartTime><FrequencyChanges><FrequencyChange><Frequency dt:dt=""r8"">2857431</Frequency><Timestamp dt:dt=""r8"">4772491452034</Timestamp><Current dt:dt=""r8"">0</Current><DateUtc dt:dt=""string"">2013-05-13T18:00:00Z</DateUtc></FrequencyChange></FrequencyChanges></Clock>\n",60.002,1,782969916,5/13/2013,11:00:00,6:00:00 PM,female,6,Blockproc,SpeakerList,4,1,6,4,7,0,,-999999,29,830549,2,2610,833159,SenarioProc,1,SenarioList,,,,3,6,57,3,4_3_con.wav,4_3_pan.wav,4_3_con.wav
KoreanPoliteness_Perception_2_Hangul,31,1,24,"<?xml version=""1.0""?>\n<Clock xmlns:dt=""urn:schemas-microsoft-com:datatypes""><Description dt:dt=""string"">E-Prime Primary Realtime Clock</Description><StartTime><Timestamp dt:dt=""int"">0</Timestamp><DateUtc dt:dt=""string"">2013-05-13T18:00:00Z</DateUtc></StartTime><FrequencyChanges><FrequencyChange><Frequency dt:dt=""r8"">2857431</Frequency><Timestamp dt:dt=""r8"">4772491452034</Timestamp><Current dt:dt=""r8"">0</Current><DateUtc dt:dt=""string"">2013-05-13T18:00:00Z</DateUtc></FrequencyChange></FrequencyChanges></Clock>\n",60.002,1,782969916,5/13/2013,11:00:00,6:00:00 PM,female,6,Blockproc,SpeakerList,4,1,6,4,8,0,,-999999,27,838416,2,271,838687,SenarioProc,2,SenarioList,,,,1,6,58,1,4_1_pan.wav,4_1_con.wav,4_1_pan.wav
KoreanPoliteness_Perception_2_Hangul,31,1,24,"<?xml version=""1.0""?>\n<Clock xmlns:dt=""urn:schemas-microsoft-com:datatypes""><Description dt:dt=""string"">E-Prime Primary Realtime Clock</Description><StartTime><Timestamp dt:dt=""int"">0</Timestamp><DateUtc dt:dt=""string"">2013-05-13T18:00:00Z</DateUtc></StartTime><FrequencyChanges><FrequencyChange><Frequency dt:dt=""r8"">2857431</Frequency><Timestamp dt:dt=""r8"">4772491452034</Timestamp><Current dt:dt=""r8"">0</Current><DateUtc dt:dt=""string"">2013-05-13T18:00:00Z</DateUtc></FrequencyChange></FrequencyChanges></Clock>\n",60.002,1,782969916,5/13/2013,11:00:00,6:00:00 PM,female,6,Blockproc,SpeakerList,4,1,6,4,9,0,,-999999,36,845565,1,530,846095,SenarioProc,1,SenarioList,,,,6,6,59,6,4_6_con.wav,4_6_pan.wav,4_6_con.wav
KoreanPoliteness_Perception_2_Hangul,31,1,24,"<?xml version=""1.0""?>\n<Clock xmlns:dt=""urn:schemas-microsoft-com:datatypes""><Description dt:dt=""string"">E-Prime Primary Realtime Clock</Description><StartTime><Timestamp dt:dt=""int"">0</Timestamp><DateUtc dt:dt=""string"">2013-05-13T18:00:00Z</DateUtc></StartTime><FrequencyChanges><FrequencyChange><Frequency dt:dt=""r8"">2857431</Frequency><Timestamp dt:dt=""r8"">4772491452034</Timestamp><Current dt:dt=""r8"">0</Current><DateUtc dt:dt=""string"">2013-05-13T18:00:00Z</DateUtc></FrequencyChange></FrequencyChanges></Clock>\n",60.002,1,782969916,5/13/2013,11:00:00,6:00:00 PM,female,6,Blockproc,SpeakerList,4,1,6,4,10,0,,-999999,38,852648,2,287,852935,SenarioProc,2,SenarioList,,,,7,6,60,7,4_7_pan.wav,4_7_con.wav,4_7_pan.wav
KoreanPoliteness_Perception_2_Hangul,31,1,24,"<?xml version=""1.0""?>\n<Clock xmlns:dt=""urn:schemas-microsoft-com:datatypes""><Description dt:dt=""string"">E-Prime Primary Realtime Clock</Description><StartTime><Timestamp dt:dt=""int"">0</Timestamp><DateUtc dt:dt=""string"">2013-05-13T18:00:00Z</DateUtc></StartTime><FrequencyChanges><FrequencyChange><Frequency dt:dt=""r8"">2857431</Frequency><Timestamp dt:dt=""r8"">4772491452034</Timestamp><Current dt:dt=""r8"">0</Current><DateUtc dt:dt=""string"">2013-05-13T18:00:00Z</DateUtc></FrequencyChange></FrequencyChanges></Clock>\n",60.002,1,782969916,5/13/2013,11:00:00,6:00:00 PM,female,6,Blockproc,SpeakerList,4,1,6,4,11,0,,-999999,36,859915,1,307,860222,SoundProc,,SecondSenarioList,5,12,51,,,,5,4_5_con.wav,4_5_pan.wav,
KoreanPoliteness_Perception_2_Hangul,31,1,24,"<?xml version=""1.0""?>\n<Clock xmlns:dt=""urn:schemas-microsoft-com:datatypes""><Description dt:dt=""string"">E-Prime Primary Realtime Clock</Description><StartTime><Timestamp dt:dt=""int"">0</Timestamp><DateUtc dt:dt=""string"">2013-05-13T18:00:00Z</DateUtc></StartTime><FrequencyChanges><FrequencyChange><Frequency dt:dt=""r8"">2857431</Frequency><Timestamp dt:dt=""r8"">4772491452034</Timestamp><Current dt:dt=""r8"">0</Current><DateUtc dt:dt=""string"">2013-05-13T18:00:00Z</DateUtc></FrequencyChange></FrequencyChanges></Clock>\n",60.002,1,782969916,5/13/2013,11:00:00,6:00:00 PM,female,6,Blockproc,SpeakerList,4,1,6,4,12,0,,-999999,42,867081,2,165,867246,SoundProc,,SecondSenarioList,6,12,52,,,,6,4_6_pan.wav,4_6_con.wav,
KoreanPoliteness_Perception_2_Hangul,31,1,24,"<?xml version=""1.0""?>\n<Clock xmlns:dt=""urn:schemas-microsoft-com:datatypes""><Description dt:dt=""string"">E-Prime Primary Realtime Clock</Description><StartTime><Timestamp dt:dt=""int"">0</Timestamp><DateUtc dt:dt=""string"">2013-05-13T18:00:00Z</DateUtc></StartTime><FrequencyChanges><FrequencyChange><Frequency dt:dt=""r8"">2857431</Frequency><Timestamp dt:dt=""r8"">4772491452034</Timestamp><Current dt:dt=""r8"">0</Current><DateUtc dt:dt=""string"">2013-05-13T18:00:00Z</DateUtc></FrequencyChange></FrequencyChanges></Clock>\n",60.002,1,782969916,5/13/2013,11:00:00,6:00:00 PM,female,6,Blockproc,SpeakerList,4,1,6,4,13,0,,-999999,29,873098,1,276,873374,SoundProc,,SecondSenarioList,2,12,53,,,,2,4_2_con.wav,4_2_pan.wav,
KoreanPoliteness_Perception_2_Hangul,31,1,24,"<?xml version=""1.0""?>\n<Clock xmlns:dt=""urn:schemas-microsoft-com:datatypes""><Description dt:dt=""string"">E-Prime Primary Realtime Clock</Description><StartTime><Timestamp dt:dt=""int"">0</Timestamp><DateUtc dt:dt=""string"">2013-05-13T18:00:00Z</DateUtc></StartTime><FrequencyChanges><FrequencyChange><Frequency dt:dt=""r8"">2857431</Frequency><Timestamp dt:dt=""r8"">4772491452034</Timestamp><Current dt:dt=""r8"">0</Current><DateUtc dt:dt=""string"">2013-05-13T18:00:00Z</DateUtc></FrequencyChange></FrequencyChanges></Clock>\n",60.002,1,782969916,5/13/2013,11:00:00,6:00:00 PM,female,6,Blockproc,SpeakerList,4,1,6,4,14,0,,-999999,32,879681,2,213,879894,SoundProc,,SecondSenarioList,9,12,54,,,,9,4_9_pan.wav,4_9_con.wav,
KoreanPoliteness_Perception_2_Hangul,31,1,24,"<?xml version=""1.0""?>\n<Clock xmlns:dt=""urn:schemas-microsoft-com:datatypes""><Description dt:dt=""string"">E-Prime Primary Realtime Clock</Description><StartTime><Timestamp dt:dt=""int"">0</Timestamp><DateUtc dt:dt=""string"">2013-05-13T18:00:00Z</DateUtc></StartTime><FrequencyChanges><FrequencyChange><Frequency dt:dt=""r8"">2857431</Frequency><Timestamp dt:dt=""r8"">4772491452034</Timestamp><Current dt:dt=""r8"">0</Current><DateUtc dt:dt=""string"">2013-05-13T18:00:00Z</DateUtc></FrequencyChange></FrequencyChanges></Clock>\n",60.002,1,782969916,5/13/2013,11:00:00,6:00:00 PM,female,6,Blockproc,SpeakerList,4,1,6,4,15,0,,-999999,28,886447,1,335,886782,SoundProc,,SecondSenarioList,7,12,55,,,,7,4_7_con.wav,4_7_pan.wav,
KoreanPoliteness_Perception_2_Hangul,31,1,24,"<?xml version=""1.0""?>\n<Clock xmlns:dt=""urn:schemas-microsoft-com:datatypes""><Description dt:dt=""string"">E-Prime Primary Realtime Clock</Description><StartTime><Timestamp dt:dt=""int"">0</Timestamp><DateUtc dt:dt=""string"">2013-05-13T18:00:00Z</DateUtc></StartTime><FrequencyChanges><FrequencyChange><Frequency dt:dt=""r8"">2857431</Frequency><Timestamp dt:dt=""r8"">4772491452034</Timestamp><Current dt:dt=""r8"">0</Current><DateUtc dt:dt=""string"">2013-05-13T18:00:00Z</DateUtc></FrequencyChange></FrequencyChanges></Clock>\n",60.002,1,782969916,5/13/2013,11:00:00,6:00:00 PM,female,6,Blockproc,SpeakerList,4,1,6,4,16,0,,-999999,36,892064,1,310,892374,SoundProc,,SecondSenarioList,1,12,56,,,,1,4_1_con.wav,4_1_pan.wav,
KoreanPoliteness_Perception_2_Hangul,31,1,24,"<?xml version=""1.0""?>\n<Clock xmlns:dt=""urn:schemas-microsoft-com:datatypes""><Description dt:dt=""string"">E-Prime Primary Realtime Clock</Description><StartTime><Timestamp dt:dt=""int"">0</Timestamp><DateUtc dt:dt=""string"">2013-05-13T18:00:00Z</DateUtc></StartTime><FrequencyChanges><FrequencyChange><Frequency dt:dt=""r8"">2857431</Frequency><Timestamp dt:dt=""r8"">4772491452034</Timestamp><Current dt:dt=""r8"">0</Current><DateUtc dt:dt=""string"">2013-05-13T18:00:00Z</DateUtc></FrequencyChange></FrequencyChanges></Clock>\n",60.002,1,782969916,5/13/2013,11:00:00,6:00:00 PM,female,6,Blockproc,SpeakerList,4,1,6,4,17,0,,-999999,41,898680,2,230,898910,SoundProc,,SecondSenarioList,4,12,57,,,,4,4_4_pan.wav,4_4_con.wav,
KoreanPoliteness_Perception_2_Hangul,31,1,24,"<?xml version=""1.0""?>\n<Clock xmlns:dt=""urn:schemas-microsoft-com:datatypes""><Description dt:dt=""string"">E-Prime Primary Realtime Clock</Description><StartTime><Timestamp dt:dt=""int"">0</Timestamp><DateUtc dt:dt=""string"">2013-05-13T18:00:00Z</DateUtc></StartTime><FrequencyChanges><FrequencyChange><Frequency dt:dt=""r8"">2857431</Frequency><Timestamp dt:dt=""r8"">4772491452034</Timestamp><Current dt:dt=""r8"">0</Current><DateUtc dt:dt=""string"">2013-05-13T18:00:00Z</DateUtc></FrequencyChange></FrequencyChanges></Clock>\n",60.002,1,782969916,5/13/2013,11:00:00,6:00:00 PM,female,6,Blockproc,SpeakerList,4,1,6,4,18,0,,-999999,31,905180,1,578,905758,SoundProc,,SecondSenarioList,10,12,58,,,,10,4_10_con.wav,4_10_pan.wav,
KoreanPoliteness_Perception_2_Hangul,31,1,24,"<?xml version=""1.0""?>\n<Clock xmlns:dt=""urn:schemas-microsoft-com:datatypes""><Description dt:dt=""string"">E-Prime Primary Realtime Clock</Description><StartTime><Timestamp dt:dt=""int"">0</Timestamp><DateUtc dt:dt=""string"">2013-05-13T18:00:00Z</DateUtc></StartTime><FrequencyChanges><FrequencyChange><Frequency dt:dt=""r8"">2857431</Frequency><Timestamp dt:dt=""r8"">4772491452034</Timestamp><Current dt:dt=""r8"">0</Current><DateUtc dt:dt=""string"">2013-05-13T18:00:00Z</DateUtc></FrequencyChange></FrequencyChanges></Clock>\n",60.002,1,782969916,5/13/2013,11:00:00,6:00:00 PM,female,6,Blockproc,SpeakerList,4,1,6,4,19,0,,-999999,39,913797,2,225,914022,SoundProc,,SecondSenarioList,3,12,59,,,,3,4_3_pan.wav,4_3_con.wav,
KoreanPoliteness_Perception_2_Hangul,31,1,24,"<?xml version=""1.0""?>\n<Clock xmlns:dt=""urn:schemas-microsoft-com:datatypes""><Description dt:dt=""string"">E-Prime Primary Realtime Clock</Description><StartTime><Timestamp dt:dt=""int"">0</Timestamp><DateUtc dt:dt=""string"">2013-05-13T18:00:00Z</DateUtc></StartTime><FrequencyChanges><FrequencyChange><Frequency dt:dt=""r8"">2857431</Frequency><Timestamp dt:dt=""r8"">4772491452034</Timestamp><Current dt:dt=""r8"">0</Current><DateUtc dt:dt=""string"">2013-05-13T18:00:00Z</DateUtc></FrequencyChange></FrequencyChanges></Clock>\n",60.002,1,782969916,5/13/2013,11:00:00,6:00:00 PM,female,6,Blockproc,SpeakerList,4,1,6,4,20,0,,-999999,41,919830,2,1504,921334,SoundProc,,SecondSenarioList,8,12,60,,,,8,4_8_pan.wav,4_8_con.wav,
KoreanPoliteness_Perception_2_Hangul,31,1,24,"<?xml version=""1.0""?>\n<Clock xmlns:dt=""urn:schemas-microsoft-com:datatypes""><Description dt:dt=""string"">E-Prime Primary Realtime Clock</Description><StartTime><Timestamp dt:dt=""int"">0</Timestamp><DateUtc dt:dt=""string"">2013-05-13T18:00:00Z</DateUtc></StartTime><FrequencyChanges><FrequencyChange><Frequency dt:dt=""r8"">2857431</Frequency><Timestamp dt:dt=""r8"">4772491452034</Timestamp><Current dt:dt=""r8"">0</Current><DateUtc dt:dt=""string"">2013-05-13T18:00:00Z</DateUtc></FrequencyChange></FrequencyChanges></Clock>\n",60.002,1,782969916,5/13/2013,11:00:00,6:00:00 PM,female,7,Blockproc,SpeakerList,3,1,7,3,1,0,,-999999,34,972811,1,242,973053,SenarioProc,2,SenarioList,,,,9,7,61,9,3_9_pan.wav,3_9_con.wav,3_9_pan.wav
KoreanPoliteness_Perception_2_Hangul,31,1,24,"<?xml version=""1.0""?>\n<Clock xmlns:dt=""urn:schemas-microsoft-com:datatypes""><Description dt:dt=""string"">E-Prime Primary Realtime Clock</Description><StartTime><Timestamp dt:dt=""int"">0</Timestamp><DateUtc dt:dt=""string"">2013-05-13T18:00:00Z</DateUtc></StartTime><FrequencyChanges><FrequencyChange><Frequency dt:dt=""r8"">2857431</Frequency><Timestamp dt:dt=""r8"">4772491452034</Timestamp><Current dt:dt=""r8"">0</Current><DateUtc dt:dt=""string"">2013-05-13T18:00:00Z</DateUtc></FrequencyChange></FrequencyChanges></Clock>\n",60.002,1,782969916,5/13/2013,11:00:00,6:00:00 PM,female,7,Blockproc,SpeakerList,3,1,7,3,2,0,,-999999,40,977728,2,429,978157,SenarioProc,2,SenarioList,,,,7,7,62,7,3_7_pan.wav,3_7_con.wav,3_7_pan.wav
KoreanPoliteness_Perception_2_Hangul,31,1,24,"<?xml version=""1.0""?>\n<Clock xmlns:dt=""urn:schemas-microsoft-com:datatypes""><Description dt:dt=""string"">E-Prime Primary Realtime Clock</Description><StartTime><Timestamp dt:dt=""int"">0</Timestamp><DateUtc dt:dt=""string"">2013-05-13T18:00:00Z</DateUtc></StartTime><FrequencyChanges><FrequencyChange><Frequency dt:dt=""r8"">2857431</Frequency><Timestamp dt:dt=""r8"">4772491452034</Timestamp><Current dt:dt=""r8"">0</Current><DateUtc dt:dt=""string"">2013-05-13T18:00:00Z</DateUtc></FrequencyChange></FrequencyChanges></Clock>\n",60.002,1,782969916,5/13/2013,11:00:00,6:00:00 PM,female,7,Blockproc,SpeakerList,3,1,7,3,3,0,,-999999,30,982878,2,919,983797,SenarioProc,1,SenarioList,,,,8,7,63,8,3_8_con.wav,3_8_pan.wav,3_8_con.wav
KoreanPoliteness_Perception_2_Hangul,31,1,24,"<?xml version=""1.0""?>\n<Clock xmlns:dt=""urn:schemas-microsoft-com:datatypes""><Description dt:dt=""string"">E-Prime Primary Realtime Clock</Description><StartTime><Timestamp dt:dt=""int"">0</Timestamp><DateUtc dt:dt=""string"">2013-05-13T18:00:00Z</DateUtc></StartTime><FrequencyChanges><FrequencyChange><Frequency dt:dt=""r8"">2857431</Frequency><Timestamp dt:dt=""r8"">4772491452034</Timestamp><Current dt:dt=""r8"">0</Current><DateUtc dt:dt=""string"">2013-05-13T18:00:00Z</DateUtc></FrequencyChange></FrequencyChanges></Clock>\n",60.002,1,782969916,5/13/2013,11:00:00,6:00:00 PM,female,7,Blockproc,SpeakerList,3,1,7,3,4,0,,-999999,34,989461,2,240,989701,SenarioProc,2,SenarioList,,,,5,7,64,5,3_5_pan.wav,3_5_con.wav,3_5_pan.wav
KoreanPoliteness_Perception_2_Hangul,31,1,24,"<?xml version=""1.0""?>\n<Clock xmlns:dt=""urn:schemas-microsoft-com:datatypes""><Description dt:dt=""string"">E-Prime Primary Realtime Clock</Description><StartTime><Timestamp dt:dt=""int"">0</Timestamp><DateUtc dt:dt=""string"">2013-05-13T18:00:00Z</DateUtc></StartTime><FrequencyChanges><FrequencyChange><Frequency dt:dt=""r8"">2857431</Frequency><Timestamp dt:dt=""r8"">4772491452034</Timestamp><Current dt:dt=""r8"">0</Current><DateUtc dt:dt=""string"">2013-05-13T18:00:00Z</DateUtc></FrequencyChange></FrequencyChanges></Clock>\n",60.002,1,782969916,5/13/2013,11:00:00,6:00:00 PM,female,7,Blockproc,SpeakerList,3,1,7,3,5,0,,-999999,37,994644,2,233,994877,SenarioProc,2,SenarioList,,,,10,7,65,10,3_10_pan.wav,3_10_con.wav,3_10_pan.wav
KoreanPoliteness_Perception_2_Hangul,31,1,24,"<?xml version=""1.0""?>\n<Clock xmlns:dt=""urn:schemas-microsoft-com:datatypes""><Description dt:dt=""string"">E-Prime Primary Realtime Clock</Description><StartTime><Timestamp dt:dt=""int"">0</Timestamp><DateUtc dt:dt=""string"">2013-05-13T18:00:00Z</DateUtc></StartTime><FrequencyChanges><FrequencyChange><Frequency dt:dt=""r8"">2857431</Frequency><Timestamp dt:dt=""r8"">4772491452034</Timestamp><Current dt:dt=""r8"">0</Current><DateUtc dt:dt=""string"">2013-05-13T18:00:00Z</DateUtc></FrequencyChange></FrequencyChanges></Clock>\n",60.002,1,782969916,5/13/2013,11:00:00,6:00:00 PM,female,7,Blockproc,SpeakerList,3,1,7,3,6,0,,-999999,33,999611,2,202,999813,SenarioProc,2,SenarioList,,,,2,7,66,2,3_2_pan.wav,3_2_con.wav,3_2_pan.wav
KoreanPoliteness_Perception_2_Hangul,31,1,24,"<?xml version=""1.0""?>\n<Clock xmlns:dt=""urn:schemas-microsoft-com:datatypes""><Description dt:dt=""string"">E-Prime Primary Realtime Clock</Description><StartTime><Timestamp dt:dt=""int"">0</Timestamp><DateUtc dt:dt=""string"">2013-05-13T18:00:00Z</DateUtc></StartTime><FrequencyChanges><FrequencyChange><Frequency dt:dt=""r8"">2857431</Frequency><Timestamp dt:dt=""r8"">4772491452034</Timestamp><Current dt:dt=""r8"">0</Current><DateUtc dt:dt=""string"">2013-05-13T18:00:00Z</DateUtc></FrequencyChange></FrequencyChanges></Clock>\n",60.002,1,782969916,5/13/2013,11:00:00,6:00:00 PM,female,7,Blockproc,SpeakerList,3,1,7,3,7,0,,-999999,43,1004661,2,1448,1006109,SenarioProc,1,SenarioList,,,,6,7,67,6,3_6_con.wav,3_6_pan.wav,3_6_con.wav
